timestamp	accel_x	accel_y	accel_z	accel_mag
1237386076355	1.6889231	-3.1463003	-9.534244	0.37438488
1237386076392	1.4709976	-3.800077	-9.084772	0.15013123
1237386076434	1.9068487	-3.5821514	-9.084772	0.1432724
1237386076472	1.6344417	-3.5821514	-8.921328	-0.055070877
1237386076512	1.6344417	-3.9090397	-8.7034025	-0.12671185
1237386076552	1.6889231	-3.9090397	-8.648921	-0.16627216
1237386076592	1.5799603	-3.9635212	-8.5944395	-0.21133041
1237386076632	1.5799603	-3.9635212	-8.757884	-0.06466389
1237386076672	1.6889231	-3.9635212	-8.812365	0.0025148392
1237386076713	1.8523673	-4.1814466	-8.7034025	0.025184631
1237386076753	2.070293	-4.399372	-8.430995	-0.074113846
1237386076793	2.6014864	-4.5628166	-7.8180795	-0.38808346
1237386076833	2.9283748	-4.671779	-7.43671	-0.54892063
1237386076873	3.3506055	-5.066769	-7.43671	-0.20439243
1237386076913	3.8954194	-5.6660647	-7.600154	0.44229698
1237386076953	3.9499009	-6.2108784	-7.763598	0.891489
1237386076993	3.9499009	-6.537767	-7.3822284	0.8160343
1237386077033	3.7319753	-6.6467295	-6.4424243	0.17390537
1237386077073	3.6230125	-6.374323	-5.611583	-0.5736618
1237386077113	3.6230125	-6.101916	-5.175732	-1.0232687
1237386077153	3.6774938	-6.101916	-5.5026207	-0.80464077
1237386077193	3.7319753	-6.1563973	-6.115536	-0.3605585
1237386077233	3.405087	-6.3198414	-6.66035	-0.014037132
1237386077273	3.0373375	-6.6467295	-7.1098213	0.38913345
1237386077313	2.982856	-7.04172	-6.8237944	0.44261456
1237386077353	3.091819	-7.3141265	-6.2789803	0.31665897
1237386077393	3.7319753	-7.477571	-5.7750273	0.3517275
1237386077433	4.807983	-7.641015	-5.6660647	0.85196686
1237386077473	5.611583	-7.804459	-6.0610547	1.5571451
1237386077513	6.197258	-7.5865335	-5.012288	1.1971912
1237386077553	5.9248514	-7.5865335	-5.611583	1.335577
1237386077593	5.012288	-7.913422	-5.6660647	1.140933
1237386077633	3.5140498	-7.368608	-5.066769	-0.19847298
1237386077673	1.6344417	-6.7556925	-6.5513873	-0.25513363
1237386077713	0.9942854	-5.6660647	-7.763598	-0.1440239
1237386077753	0.13620348	-5.066769	-7.9270425	-0.39768124
1237386077793	0.55843425	-5.611583	-8.866846	0.7015686
1237386077833	0.7763598	-5.7750273	-9.139254	1.0321522
1237386077873	2.6014864	-6.2108784	-7.04172	-0.063521385
1237386077913	3.3642259	-6.3607025	-7.0689607	0.28030968
1237386077953	3.6911142	-5.597963	-7.0689607	-0.06335926
1237386077994	4.7126403	-6.742072	-7.7908387	1.5230312
1237386078038	3.2007818	-7.3549876	-8.785124	2.0895367
1237386078075	2.3426998	-6.0882955	-8.62168	1.0048695
1237386078113	1.5935807	-6.2517395	-8.458236	0.8312769
1237386078154	1.334794	-4.944186	-7.572913	-0.6646776
1237386078193	0.84446156	-4.4947147	-7.518432	-1.0065136
1237386078233	0.89894295	-5.9793324	-7.6273947	-0.073322296
1237386078273	1.334794	-5.4890003	-8.008764	-0.0060834885
1237386078313	0.88532263	-6.4151835	-8.512717	0.88936424
1237386078355	0.667397	-6.197258	-8.730643	0.9206772
1237386078394	1.6889231	-6.4151835	-8.839605	1.2453032
1237386078433	0.9942854	-6.7965536	-8.172209	0.8688698
1237386078473	0.44947147	-5.325556	-9.942854	1.4815702
1237386078513	-0.24516626	-5.2165933	-9.39804	0.9449129
1237386078553	-0.939804	-3.4595683	-10.106298	0.9166479
1237386078592	-0.44947147	-3.4595683	-10.8281765	1.569643
1237386078633	0.24516626	-3.7319753	-8.567199	-0.45867443
1237386078673	1.4165162	-4.276789	-8.839605	0.114845276
1237386078713	1.6208214	-5.271075	-8.240311	0.10869217
1237386078753	0.3949901	-3.840938	-7.409469	-1.4514685
1237386078793	0.2860273	-3.9635212	-7.8998017	-0.96367645
1237386078833	-0.14982383	-3.255263	-7.7908387	-1.3617487
1237386078873	-0.84446156	-2.6423476	-7.681876	-1.6392555
1237386078913	0.81722087	-3.0373375	-9.112013	-0.16704178
1237386078953	0.54481393	-3.2007818	-8.730643	-0.49182606
1237386078993	0.12258313	-4.235928	-8.730643	-0.101896286
1237386079033	-0.38136974	-4.344891	-8.839605	0.05043602
1237386079073	-0.9670447	-5.829509	-7.681876	-0.11492348
1237386079113	-1.293933	-6.428804	-7.1915436	-0.07412338
1237386079153	-1.0760075	-6.374323	-7.246025	-0.09610653
1237386079193	-0.43585113	-7.4230895	-6.742072	0.23066807
1237386079233	-0.9125633	-7.641015	-6.3607025	0.1771574
1237386079273	-0.7491191	-7.9679036	-6.7965536	0.6929598
1237386079323	-1.334794	-6.932757	-6.742072	-0.04446125
1237386079363	-1.7842655	-7.205164	-7.137062	0.4907112
1237386079403	-2.4789033	-6.810174	-7.3005066	0.48027515
1237386079443	-3.3914666	-5.829509	-6.197258	-0.6474352
1237386079483	-3.6093922	-5.7750273	-5.529861	-1.0340786
1237386079523	-3.336985	-4.671779	-4.6445384	-2.4220223
1237386079563	-3.8273177	-5.1212506	-3.1599207	-2.6749835
1237386079602	-6.0201936	-7.477571	-2.4380422	0.09793663
1237386079643	-5.802268	-7.5320525	-2.7785509	0.09882736
1237386079683	-6.7148314	-8.567199	-2.1656353	1.291811
1237386079723	-6.238119	-8.512717	-2.3290794	1.0009909
1237386079762	-2.8057916	-7.4230895	-1.7842655	-1.6728735
1237386079803	-2.2201166	-8.567199	-0.5720546	-0.937994
1237386079843	-1.4573772	-8.907707	-1.334794	-0.6823492
1237386079883	-0.6537767	-9.071152	-1.1713499	-0.6368475
1237386079923	-0.81722087	-8.730643	-2.383561	-0.71966267
1237386079963	-0.81722087	-8.62168	-3.1054392	-0.6063795
1237386080003	-1.0896279	-8.785124	-1.8932283	-0.7540264
1237386080043	-1.3075534	-8.962189	-1.2803127	-0.6595354
1237386080083	-1.6208214	-9.39804	-2.383561	0.023486137
1237386080123	-2.2609777	-10.160779	-2.8330324	0.98128414
1237386080163	-2.1247742	-9.79303	-3.6502533	0.8583603
1237386080203	-1.6889231	-9.139254	-5.7477865	1.121088
1237386080243	-1.4709976	-7.763598	-6.469665	0.4057865
1237386080283	-0.50395286	-7.164303	-7.1915436	0.35698605
1237386080324	-0.55843425	-6.5513873	-8.567199	0.99285984
1237386080363	-0.88532263	-5.952092	-9.220976	1.2041445
1237386080403	-1.1577295	-5.7886477	-8.839605	0.82290363
1237386080443	-1.8523673	-5.243834	-8.567199	0.40735817
1237386080483	-1.5799603	-4.971427	-8.240311	-0.054005623
1237386080523	-1.4165162	-4.3585114	-8.730643	0.053738594
1237386080563	-1.5799603	-4.140586	-8.063246	-0.6057453
1237386080603	-1.96133	-3.5412905	-8.567199	-0.3311844
1237386080643	-2.192876	-2.7104492	-8.894087	-0.25363922
1237386080683	-2.5606253	-2.6014864	-8.117727	-0.9059744
1237386080723	-3.1054392	-2.6014864	-9.220976	0.264987
1237386080763	-2.506144	-2.4925237	-8.894087	-0.23595428
1237386080803	-1.9749504	-2.1656353	-8.894087	-0.44207954
1237386080843	-1.8659877	-2.3290794	-10.773695	1.3727512
1237386080883	-0.25878662	-1.8387469	-10.8281765	1.1795855
1237386080923	0.06810174	-1.6753027	-10.446807	0.7738533
1237386080963	-0.9670447	-2.2745981	-10.3242235	0.80930805
1237386081003	-0.7491191	-1.7842655	-9.39804	-0.21144676
1237386081043	-0.8036005	-1.4573772	-9.452521	-0.20874023
1237386081083	-0.43585113	-0.40861043	-3.1599207	-6.590748
1237386081123	1.2394516	1.0760075	-3.800077	-5.667252
1237386081163	1.4437568	0.5720546	-3.9771416	-5.5370674
1237386081203	2.901134	0.027240695	-3.5276701	-5.2391806
1237386081243	3.8136973	-0.46309182	-8.717023	-0.28062057
1237386081283	3.7047346	-2.2745981	-7.940663	-0.7538614
1237386081324	3.92266	-3.1054392	-6.8374147	-1.3342686
1237386081373	2.3018389	-3.7047346	-6.67397	-1.833859
1237386081433	1.3892754	-4.5219555	-8.049625	-0.46991444
1237386081473	1.334794	-3.8681788	-8.158588	-0.6793804
1237386081523	1.293933	-3.4323275	-8.934948	-0.14805603
1237386081563	0.58567494	-3.9362805	-9.2073555	0.22393894
1237386081603	-0.7491191	-4.5900574	-9.874752	1.1085014
1237386081643	-1.9340894	-4.3176503	-9.765789	1.044776
1237386081683	-3.1190596	-4.7535014	-8.717023	0.6005974
1237386081723	-3.990762	-4.69902	-9.2073555	1.2740698
1237386081763	-4.140586	-4.7535014	-9.547864	1.6345882
1237386081804	-5.053149	-6.4560447	-9.820271	2.9860249
1237386081844	-5.5434813	-6.7284517	-9.438901	3.042283
1237386081884	-4.9986677	-6.67397	-7.8861814	1.6703014
1237386081923	-5.1621118	-6.4560447	-5.7886477	0.28474998
1237386081963	-4.467474	-5.8158884	-3.5821514	-1.6448679
1237386082003	-5.1621118	-5.87037	-0.7218784	-1.9561882
1237386082044	-6.347082	-5.87037	-0.10896278	-1.160347
1237386082083	-6.769313	-5.706926	0.21792556	-0.95000935
1237386082123	-7.84532	-6.142777	-0.4903325	0.16948032
1237386082163	-8.281172	-6.469665	-2.2609777	0.94260025
1237386082203	-8.390134	-6.3607025	-1.3211738	0.8045883
1237386082243	-9.084772	-6.578628	-0.9942854	1.4539022
1237386082284	-9.615966	-6.3607025	-0.16344418	1.723834
1237386082324	-8.921328	-5.2165933	0.21792556	0.5301981
1237386082363	-8.60806	-6.197258	-0.16344418	0.8014326
1237386082403	-7.8589406	-6.197258	1.3756552	0.29589272
1237386082444	-6.8374147	-7.0280995	1.7161638	0.14772797
1237386082483	-5.1212506	-7.84532	2.315459	-0.15586758
1237386082523	-3.840938	-8.662541	4.031623	0.49123383
1237386082563	-3.7864566	-9.983715	3.800077	1.5270348
1237386082603	-6.306221	-10.746454	4.630918	3.486209
1237386082643	-7.327747	-10.147159	3.3097446	3.1399755
1237386082683	-8.403754	-7.6273947	1.6616824	1.663372
1237386082723	-8.458236	-5.5434813	0.88532263	0.34498692
1237386082763	-6.7284517	-2.73769	-0.7218784	-2.5067792
1237386082803	-8.499097	-5.053149	-0.9942854	0.1310339
1237386082843	-7.804459	-6.742072	-0.16344418	0.50799084
1237386082885	-7.749978	-6.742072	0.7763598	0.49482727
1237386082926	-6.782933	-10.365085	1.0487667	2.6248856
1237386082963	-4.9578066	-7.518432	2.982856	-0.31960106
1237386083003	-3.4595683	-9.711308	3.7455957	1.1618319
1237386083043	-3.568531	-10.365085	3.636633	1.7430038
1237386083085	-3.4187074	-8.349273	4.7535014	0.3910799
1237386083123	-3.840938	-8.894087	5.0259085	1.107439
1237386083165	-5.7750273	-6.578628	4.4129925	-0.0033960342
1237386083207	-4.9578066	-8.063246	4.6853995	0.7550144
1237386083243	-4.903325	-8.662541	4.576437	1.1489878
1237386083292	-4.099725	-9.820271	4.140586	1.6121902
1237386083334	-3.1463003	-9.833891	4.30403	1.3794708
1237386083374	-2.9283748	-8.730643	3.759216	0.1397667
1237386083412	-2.6014864	-8.117727	3.92266	-0.42302132
1237386083451	-2.8738933	-7.681876	4.140586	-0.6188898
1237386083494	-3.8545585	-6.864655	4.807983	-0.58180237
1237386083532	-4.1269655	-7.641015	5.6933055	0.5775051
1237386083575	-3.800077	-9.561484	5.952092	2.079895
1237386083612	-3.800077	-10.814556	6.238119	3.2436113
1237386083653	-4.2223077	-11.318509	5.6252036	3.5192432
1237386083693	-4.276789	-10.269742	4.630918	2.2434092
1237386083736	-4.658159	-9.615966	4.031623	1.6134729
1237386083775	-4.930566	-8.349273	3.8136973	0.6128092
1237386083813	-4.8216033	-6.5922484	4.8488436	-0.30839348
1237386083855	-4.004382	-6.537767	4.3585114	-0.98768806
1237386083893	-4.7126403	-4.8897047	4.2495484	-1.7956047
1237386083933	-2.5606253	2.2473574	3.8681788	-4.6520185
1237386083972	0.17706452	4.508335	2.6014864	-4.598563
1237386084016	0.44947147	1.3211738	3.3642259	-6.164461
1237386084053	2.969236	-0.88532263	2.9283748	-5.5433726
1237386084095	1.8932283	-8.567199	2.819412	-0.59088707
1237386084133	0.2860273	-13.238978	2.3699405	3.6458216
1237386084173	-0.5720546	-11.155065	1.7161638	1.4941435
1237386084212	-2.3018389	-10.106298	2.2064962	0.79072475
1237386084252	-2.506144	-9.833891	2.0975335	0.5560627
1237386084293	-2.3563201	-10.378705	2.4244218	1.1088247
1237386084333	-2.4516625	-9.942854	2.3699405	0.7046585
1237386084376	-1.8659877	-9.39804	1.8251266	-0.052874565
1237386084415	-1.7570249	-9.670447	1.9340894	0.21060467
1237386084453	-2.0430522	-8.349273	1.8251266	-1.0194149
1237386084493	-2.0430522	-8.458236	1.879608	-0.90447426
1237386084533	-2.3699405	-7.205164	1.4301366	-2.0880818
1237386084575	-2.465283	-8.144968	1.5527196	-1.156271
1237386084615	-2.3699405	-9.41166	1.6753027	0.042339325
1237386084653	-2.2064962	-9.738548	1.56634	0.30084038
1237386084693	-2.315459	-11.550055	2.1656353	2.1706228
1237386084735	-2.2609777	-11.223166	1.7297841	1.7719355
1237386084775	-2.587866	-10.392325	1.2803127	0.97929764
1237386084813	-2.7513103	-10.228881	1.5118586	0.893136
1237386084853	-3.0237172	-9.575105	1.9477097	0.42169666
1237386084893	-3.2416427	-8.417375	2.002191	-0.56710434
1237386084933	-3.0237172	-7.872561	1.7842655	-1.1866922
1237386084972	-3.445948	-7.872561	2.2201166	-0.9308014
1237386085013	-3.0781987	-7.5456724	2.2745981	-1.3457832
1237386085052	-2.8057916	-8.090487	2.0566726	-0.9999285
1237386085093	-2.8057916	-8.866846	2.3290794	-0.21926022
1237386085133	-1.4709976	-8.539958	1.334794	-1.0387316
1237386085173	-0.44947147	-9.0983925	1.334794	-0.5998888
1237386085213	0.095342435	-8.648921	1.4437568	-1.0375366
1237386085253	1.4437568	-9.643207	2.3290794	0.21834278
1237386085293	0.626536	-9.752169	3.2688835	0.49785995
1237386085333	-0.2860273	-9.915613	2.7240696	0.48031998
1237386085373	-0.3949901	-10.242501	3.2688835	0.9520874
1237386085413	-1.3075534	-9.2073555	2.669588	-0.13133144
1237386085452	-0.7082581	-9.425281	2.383561	-0.058885574
1237386085493	-0.2860273	-9.370799	2.7240696	-0.043748856
1237386085533	-0.3405087	-9.534244	2.5606253	0.07133293
1237386085573	-0.17706452	-9.534244	2.4380422	0.03597164
1237386085613	0.040861044	-9.643207	2.3290794	0.11392021
1237386085653	-0.06810174	-9.765789	2.383561	0.2460432
1237386085692	-0.2860273	-9.765789	2.4380422	0.26293278
1237386085733	-0.4903325	-9.711308	2.6014864	0.259017
1237386085772	-0.5992953	-9.711308	2.7649305	0.30836296
1237386085813	-0.5992953	-9.656827	2.6559677	0.22667599
1237386085852	-0.44947147	-9.547864	2.6014864	0.09948254
1237386085893	-0.3405087	-9.547864	2.6559677	0.10958958
1237386085933	-0.2860273	-9.438901	2.6559677	0.0029792786
1237386085973	-0.16344418	-9.316318	2.669588	-0.114014626
1237386086012	-0.16344418	-9.316318	2.8330324	-0.0677309
1237386086052	-0.16344418	-9.261836	2.8330324	-0.1198349
1237386086092	-0.16344418	-9.316318	2.8875136	-0.051742554
1237386086133	-0.12258313	-9.343558	2.9556155	-0.0059986115
1237386086173	0.095342435	-9.289077	2.8466527	-0.09071159
1237386086213	0.32688835	-9.39804	2.8875136	0.030409813
1237386086252	0.43585113	-9.507003	2.8875136	0.13874054
1237386086294	0.38136974	-9.507003	2.8330324	0.120817184
1237386086333	0.21792556	-9.615966	2.8875136	0.23586082
1237386086373	0.05448139	-9.39804	2.7785509	-0.0063199997
1237386086413	-0.10896278	-9.289077	2.669588	-0.1409626
1237386086453	-0.23154591	-9.39804	2.73769	-0.015239716
1237386086492	-0.3405087	-9.234595	2.73769	-0.1687746
1237386086532	-0.3949901	-9.39804	2.73769	-0.010012627
1237386086573	-0.3405087	-9.507003	2.6832085	0.07761288
1237386086622	-0.013620348	-9.615966	2.5742457	0.147933
1237386086661	0.3677494	-9.833891	2.3426998	0.309124
1237386086702	0.51757324	-9.684067	2.1111538	0.1183691
1237386086741	0.5720546	-9.684067	2.002191	0.098760605
1237386086782	0.313268	-9.684067	2.0566726	0.098358154
1237386086821	-0.12258313	-9.629586	2.1111538	0.052402496
1237386086863	-0.3949901	-9.79303	2.3426998	0.27043724
1237386086903	-0.4903325	-9.956474	2.73769	0.53098774
1237386086943	-0.7627395	-10.065437	2.9964764	0.72300625
1237386086983	-0.980665	-10.228881	2.8330324	0.8525133
1237386087023	-0.17706452	-9.575105	0.8580819	-0.19154263
1237386087063	0.84446156	-9.520623	1.3484144	-0.15400314
1237386087103	1.1713499	-9.629586	1.1168685	-0.041999817
1237386087143	1.8659877	-9.302697	1.7297841	-0.16226101
1237386087182	1.1713499	-9.684067	3.990762	0.7327709
1237386087223	-0.013620348	-9.575105	3.5004294	0.38824177
1237386087263	-0.06810174	-9.302697	3.2688835	0.053897858
1237386087302	-0.3405087	-9.302697	2.9419951	-0.043891907
1237386087343	-0.2860273	-9.41166	3.0100968	0.0787859
1237386087382	-0.12258313	-9.193735	3.4595683	0.017219543
1237386087423	-0.2860273	-8.526338	3.5004294	-0.58530235
1237386087463	-1.0351465	-8.362893	4.7126403	-0.15167809
1237386087503	-1.0351465	-9.139254	3.7864566	0.13994408
1237386087543	-0.81722087	-9.575105	3.1190596	0.29676533
1237386087583	-0.5992953	-10.079058	3.6093922	0.91595554
1237386087623	-0.3405087	-10.242501	2.6151068	0.769907
1237386087663	-0.6537767	-9.425281	3.214402	0.17311573
1237386087703	-0.7627395	-8.975809	3.881799	0.0022888184
1237386087744	-1.1985906	-8.7034025	4.3312707	-0.011460304
1237386087782	-0.980665	-8.539958	4.167826	-0.2534647
1237386087823	-0.87170225	-8.4854765	4.099725	-0.34245872
1237386087862	-1.0896279	-8.430995	4.1542063	-0.34481144
1237386087903	-0.87170225	-8.471856	3.6230125	-0.551466
1237386087943	-0.980665	-8.635301	3.9499009	-0.26035023
1237386087983	-1.0896279	-8.744264	4.2223077	-0.03540039
1237386088023	-1.0896279	-9.01667	3.840938	0.054406166
1237386088063	-0.980665	-9.316318	3.881799	0.33355904
1237386088103	-1.0351465	-9.479762	3.4323275	0.32835293
1237386088143	-0.92618364	-9.752169	3.5140498	0.60061455
1237386088183	-0.87170225	-9.643207	3.2825038	0.4171524
1237386088223	-0.5992953	-9.534244	3.1599207	0.2554598
1237386088292	-0.4903325	-9.534244	3.6093922	0.39971733
1237386088332	-0.4903325	-9.466142	3.6230125	0.34098434
1237386088371	-0.5992953	-9.302697	3.7319753	0.23461342
1237386088412	-1.1441092	-9.043911	4.1542063	0.21127129
1237386088451	-1.3620348	-8.757884	4.0452433	-0.063978195
1237386088492	-1.4709976	-8.812365	3.9499009	-0.03816414
1237386088531	-1.4165162	-8.866846	4.167826	0.09275627
1237386088572	-1.253072	-8.7034025	3.881799	-0.19479465
1237386088611	-0.81722087	-8.866846	3.990762	-0.048833847
1237386088654	-0.54481393	-8.744264	4.0588636	-0.15090847
1237386088693	-0.3949901	-8.798744	4.0588636	-0.10880089
1237386088733	-0.013620348	-8.975809	4.099725	0.06112957
1237386088772	0.25878662	-8.757884	3.990762	-0.17889404
1237386088813	0.040861044	-9.043911	3.7319753	-0.022906303
1237386088853	-0.12258313	-9.316318	3.6230125	0.19010067
1237386088893	-0.87170225	-9.370799	3.5004294	0.23450279
1237386088932	-1.4709976	-9.425281	3.881799	0.49228764
1237386088973	-1.56634	-9.41166	4.113345	0.58336353
1237386089012	-1.6208214	-9.01667	3.5140498	0.0053806305
1237386089054	-1.5118586	-8.962189	3.4323275	-0.091332436
1237386089093	-1.1985906	-9.248216	3.3778462	0.11181545
1237386089133	-1.0351465	-9.41166	3.2825038	0.214612
1237386089172	-0.5992953	-9.629586	3.840938	0.57799625
1237386089213	-0.06810174	-9.79303	4.2086873	0.85267067
1237386089253	-0.3405087	-9.520623	4.3176503	0.6528101
1237386089293	-0.44947147	-9.684067	4.944186	1.07582
1237386089333	-0.7627395	-9.956474	5.3800373	1.5360994
1237386089373	-1.4165162	-9.357179	5.039529	0.9152975
1237386089412	-1.3075534	-9.629586	4.9850473	1.1153145
1237386089453	-0.87170225	-9.248216	5.1076303	0.79416275
1237386089493	-0.92618364	-8.144968	4.8352237	-0.28941727
1237386089533	-0.4903325	-7.8317	4.930566	-0.5391569
1237386089572	0.6810174	-7.1098213	4.8216033	-1.1891565
1237386089613	0.95342433	-7.273266	4.9986677	-0.92993355
1237386089653	0.95342433	-7.504812	5.7205462	-0.32214355
1237386089693	1.2258313	-7.0553403	5.87037	-0.5469675
1237386089732	0.3677494	-6.67397	6.428804	-0.53267384
1237386089773	0.25878662	-6.2789803	7.1506824	-0.28694344
1237386089812	0.95342433	-6.2244987	7.205164	-0.23754406
1237386089853	0.89894295	-6.3879433	7.9679036	0.44524765
1237386089893	1.4437568	-6.769313	8.294792	0.996665
1237386089933	1.8115063	-6.605869	8.144968	0.8356981
1237386089972	1.8659877	-6.2244987	8.430995	0.8379717
1237386090013	2.192876	-6.006573	8.744264	1.0261602
1237386090053	1.9749504	-5.6660647	8.853226	0.88841057
1237386090093	1.8659877	-5.339176	8.812365	0.66457176
1237386090132	1.7025435	-5.1212506	8.812365	0.5269661
1237386090173	2.083913	-4.072484	8.526338	-0.13058472
1237386090213	2.3563201	-3.2007818	8.471856	-0.4487877
1237386090253	2.669588	-2.315459	8.4854765	-0.6147318
1237386090293	3.214402	-1.0079057	8.19945	-0.94215775
1237386090333	2.8875136	-0.40861043	7.8589406	-1.4240704
1237386090372	2.9964764	0.35412905	7.4230895	-1.7937517
1237386090413	3.050958	0.7899802	7.2596455	-1.8924308
1237386090453	2.8875136	0.8580819	7.4911914	-1.7324944
1237386090494	3.4731886	1.1849703	8.131348	-0.88555145
1237386090532	3.4323275	1.1304889	8.744264	-0.34509468
1237386090573	3.4731886	0.9942854	8.921328	-0.18159294
1237386090612	3.7455957	0.88532263	9.030291	0.009634018
1237386090653	3.636633	0.6946377	8.853226	-0.21044159
1237386090692	3.9090397	0.42223078	8.853226	-0.11962414
1237386090733	3.9090397	0.20430522	8.975809	-0.014434814
1237386090814	4.0180025	0.3677494	8.812365	-0.11452198
1237386090853	4.2904096	0.42223078	8.757884	-0.045173645
1237386090894	4.4129925	0.44947147	8.853226	0.09567928
1237386090933	4.30403	0.3949901	8.907707	0.09425545
1237386090973	4.1542063	0.38136974	9.030291	0.1406622
1237386091013	3.881799	0.38136974	9.030291	0.030014038
1237386091053	3.7728362	0.38136974	9.084772	0.03778076
1237386091093	3.8273177	0.4903325	8.975809	-0.036597252
1237386091133	3.881799	0.43585113	9.030291	0.032277107
1237386091173	3.881799	0.5992953	9.084772	0.090854645
1237386091212	3.881799	0.5992953	8.921328	-0.05895233
1237386091252	3.881799	0.5992953	9.084772	0.090854645
1237386091294	4.0588636	0.46309182	9.234595	0.29119968
1237386091332	4.0588636	0.5720546	9.180115	0.24701214
1237386091373	4.0180025	0.89894295	9.0983925	0.1800003
1237386091413	3.7455957	0.7218784	9.0983925	0.05901432
1237386091453	3.759216	0.9670447	8.962189	-0.039987564
1237386091493	3.8136973	1.0760075	8.744264	-0.20642948
1237386091532	3.8681788	1.0760075	8.853226	-0.08552837
1237386091572	4.195067	1.4573772	8.744264	7.286072E-4
1237386091613	4.0452433	1.607201	8.662541	-0.11197567
1237386091653	3.7728362	1.4982382	8.880466	-0.04234314
1237386091693	3.6638734	1.4437568	8.880466	-0.09217167
1237386091732	3.5549107	1.334794	8.825985	-0.19847298
1237386091773	3.3642259	1.1849703	8.853226	-0.26192474
1237386091813	3.4187074	1.1304889	8.689782	-0.40038204
1237386091853	3.4731886	1.2258313	8.771504	-0.29323864
1237386091893	3.9635212	1.2803127	8.553578	-0.29284954
1237386091933	4.140586	1.2394516	8.798744	-0.0036611557
1237386091973	4.0861044	1.1304889	8.962189	0.10773754
1237386092013	3.759216	0.5992953	8.5944395	-0.40690327
1237386092053	3.0100968	0.16344418	9.030291	-0.28648472
1237386092093	2.9556155	-0.0	8.975809	-0.35673904
1237386092132	3.0100968	-0.0	8.921328	-0.39119625
1237386092173	3.336985	0.32688835	9.139254	-0.07174969
1237386092213	3.5957718	0.4903325	8.975809	-0.12495899
1237386092253	3.718355	0.50395286	9.670447	0.56628036
1237386092294	3.990762	0.2860273	9.997335	0.96157646
1237386092333	3.990762	0.3405087	10.296983	1.2418785
1237386092373	4.099725	0.61291564	10.079058	1.0915518
1237386092413	4.004382	0.667397	9.057531	0.1190424
1237386092453	3.7864566	1.334794	8.403754	-0.49311066
1237386092493	3.568531	2.3699405	7.981524	-0.74818707
1237386092532	3.5140498	1.5527196	9.084772	0.057048798
1237386092573	3.4323275	1.5527196	9.329938	0.2551365
1237386092613	3.6911142	1.2803127	9.888372	0.82553864
1237386092653	3.5276701	0.54481393	9.956474	0.7703371
1237386092693	3.2688835	1.3211738	9.289077	0.12904549
1237386092732	3.3233647	1.3211738	9.466142	0.31254387
1237386092773	3.2688835	1.5390993	9.180115	0.05889225
1237386092813	3.5957718	1.7706453	8.934948	-0.013895035
1237386092853	3.7047346	2.0430522	8.553578	-0.2639656
1237386092893	3.9771416	2.3563201	8.185829	-0.4057083
1237386092932	4.195067	2.3563201	8.131348	-0.3583889
1237386092973	4.5628166	2.315459	8.049625	-0.2684574
1237386093013	4.944186	2.0975335	8.104107	-0.08444977
1237386093053	5.053149	1.7570249	8.635301	0.3515911
1237386093093	4.7262607	1.4301366	8.744264	0.23550987
1237386093133	4.739881	0.95342433	8.60806	0.0662508
1237386093173	3.2961242	0.89894295	7.000859	-2.0166206
1237386093213	2.8057916	0.8308412	7.804459	-1.4716434
1237386093253	1.9477097	-0.6537767	8.635301	-0.93031025
1237386093312	1.253072	-0.05448139	10.351464	0.6205244
1237386093352	2.002191	-0.05448139	11.890564	2.2514277
1237386093391	1.253072	-1.3211738	11.168685	1.5094986
1237386093431	1.3620348	0.10896278	10.95076	1.2290268
1237386093471	0.92618364	-1.0487667	9.738548	0.031899452
1237386093511	0.44947147	-1.8115063	10.010956	0.37680817
1237386093552	0.92618364	-0.8308412	9.79303	0.065104485
1237386093591	0.980665	-1.2666923	9.125633	-0.5414791
1237386093632	0.980665	-1.3620348	9.493382	-0.16605091
1237386093672	1.253072	-1.253072	9.656827	0.011429787
1237386093712	0.81722087	-1.2122109	9.357179	-0.3359537
1237386093751	0.2860273	-1.1032481	9.575105	-0.16395378
1237386093792	0.50395286	-1.525479	10.147159	0.46690273
1237386093831	0.88532263	-1.96133	10.147159	0.5661726
1237386093872	1.4709976	-2.192876	10.405946	0.9290962
1237386093911	1.8523673	-2.587866	10.514909	1.1793232
1237386093951	1.6889231	-2.0294318	9.629586	0.17833805
1237386093991	1.4709976	-1.5390993	9.520623	-0.050886154
1237386094033	1.2666923	-1.253072	9.2073555	-0.4284792
1237386094073	1.2666923	-1.1441092	9.152874	-0.4959793
1237386094113	1.3756552	-1.4301366	9.357179	-0.24137402
1237386094153	1.1032481	-1.5390993	9.234595	-0.37989426
1237386094193	0.6810174	-1.6344417	9.438901	-0.20310688
1237386094232	0.626536	-1.525479	9.261836	-0.39914036
1237386094273	0.50395286	-1.5935807	9.39804	-0.2611475
1237386094313	0.40861043	-2.1383946	9.833891	0.26534557
1237386094353	0.6810174	-2.4516625	9.970095	0.48301506
1237386094392	0.6810174	-2.5742457	9.970095	0.51290894
1237386094434	0.626536	-2.587866	9.833891	0.38133335
1237386094473	0.5720546	-2.3018389	9.561484	0.044628143
1237386094513	0.51757324	-2.3426998	9.588725	0.07766914
1237386094552	0.42223078	-2.5197644	9.697687	0.22194004
1237386094594	0.20430522	-2.6968288	9.779409	0.33985043
1237386094632	0.20430522	-2.8602731	9.833891	0.4368019
1237386094673	0.095342435	-2.7921712	9.479762	0.07622433
1237386094712	0.14982383	-2.73769	9.193735	-0.21278954
1237386094752	0.14982383	-2.3971813	8.757884	-0.7253809
1237386094793	-0.06810174	-2.5197644	8.648921	-0.7978945
1237386094834	-0.17706452	-3.2416427	9.00305	-0.23614788
1237386094873	-0.3405087	-3.5140498	9.057531	-0.08536625
1237386094913	-0.4903325	-4.276789	9.193735	0.345006
1237386094953	-0.6537767	-4.8216033	9.302697	0.69170475
1237386094993	-0.7082581	-4.780742	9.275456	0.6523752
1237386095032	-0.7627395	-4.944186	9.329938	0.77987385
1237386095073	-0.6537767	-4.8216033	9.302697	0.69170475
1237386095112	-0.4903325	-4.385752	9.084772	0.29326725
1237386095153	-0.54481393	-4.276789	8.921328	0.10182285
1237386095192	-0.54481393	-4.276789	8.866846	0.052797318
1237386095233	-0.4903325	-4.0588636	8.839605	-0.067378044
1237386095273	-0.3949901	-4.004382	8.785124	-0.14386082
1237386095313	-0.2860273	-4.113345	8.7034025	-0.1759367
1237386095352	-0.23154591	-4.167826	8.757884	-0.104849815
1237386095393	-0.2860273	-4.1814466	8.730643	-0.12210369
1237386095432	-0.2860273	-4.235928	8.785124	-0.049432755
1237386095473	-0.2860273	-4.276789	8.934948	0.103245735
1237386095512	-0.3405087	-4.3312707	8.989429	0.1776228
1237386095552	-0.3405087	-4.276789	8.989429	0.154109
1237386095592	-0.3949901	-4.276789	8.934948	0.10698891
1237386095632	-0.44947147	-4.276789	8.934948	0.1093092
1237386095672	-0.44947147	-4.167826	8.880466	0.013506889
1237386095793	-0.44947147	-4.140586	8.839605	-0.03500271
1237386095833	-0.3949901	-4.195067	8.839605	-0.014141083
1237386095873	-0.3405087	-4.276789	8.880466	0.055883408
1237386095912	-0.2860273	-4.276789	8.880466	0.05415249
1237386095992	-0.3405087	-4.276789	8.880466	0.055883408
1237386096032	-0.3949901	-4.2223077	8.880466	0.0344162
1237386096072	-0.44947147	-4.2223077	8.880466	0.036753654
1237386096152	-0.44947147	-4.2223077	8.934948	0.08593273
1237386096192	-0.3949901	-4.276789	8.934948	0.10698891
1237386096312	-0.3405087	-4.276789	8.880466	0.055883408
1237386096432	-0.3405087	-4.3312707	8.989429	0.1776228
1237386096473	-0.44947147	-4.6036777	9.547864	0.8026657
1237386096513	-0.4903325	-4.5491962	9.152874	0.42617512
1237386096553	-0.3949901	-4.2223077	9.043911	0.18215466
1237386096593	-0.44947147	-3.9090397	8.730643	-0.2302866
1237386096632	-0.3949901	-3.5821514	8.172209	-0.8750868
1237386096672	-0.3949901	-3.5821514	8.785124	-0.3110609
1237386096713	-0.54481393	-3.800077	8.948568	-0.069387436
1237386096754	-0.5992953	-3.881799	9.2073555	0.20349026
1237386096792	-0.7082581	-3.7728362	9.2073555	0.16888618
1237386096834	-0.81722087	-3.6911142	8.948568	-0.09227657
1237386096872	-0.92618364	-3.6911142	8.948568	-0.08250427
1237386096913	-0.92618364	-3.7728362	8.934948	-0.06368351
1237386096953	-0.7082581	-3.6093922	8.771504	-0.2951498
1237386096993	-0.81722087	-3.8545585	8.934948	-0.04146862
1237386097032	-0.7082581	-3.9090397	8.771504	-0.17744923
1237386097073	-0.6537767	-3.800077	8.662541	-0.32468605
1237386097113	-0.92618364	-4.195067	8.771504	-0.039578438
1237386097193	-1.0351465	-4.2495484	8.989429	0.19035149
1237386097232	-1.0351465	-4.4129925	9.043911	0.30959225
1237386097272	-0.92618364	-4.30403	9.043911	0.25191975
1237386097313	-1.0896279	-4.4947147	9.152874	0.44834137
1237386097352	-1.0896279	-4.4947147	9.0983925	0.399745
1237386097393	-0.980665	-4.2495484	8.825985	0.03806305
1237386097432	-0.92618364	-4.30403	8.880466	0.105220795
1237386097472	-0.6537767	-4.072484	8.771504	-0.1137743
1237386097512	-0.54481393	-4.0180025	8.771504	-0.14329338
1237386097553	-0.5992953	-4.072484	8.989429	0.08041859
1237386097592	-0.5992953	-3.9635212	8.989429	0.036037445
1237386097633	-0.54481393	-3.8273177	8.934948	-0.07122612
1237386097713	-0.4903325	-3.9090397	8.934948	-0.04169655
1237386097753	-0.44947147	-3.9635212	8.989429	0.02805233
1237386097793	-0.3949901	-3.990762	9.043911	0.086504936
1237386097832	-0.3405087	-3.9362805	8.989429	0.012722969
1237386097873	-0.3949901	-3.9635212	8.934948	-0.024072647
1237386097912	-0.44947147	-4.0180025	8.934948	4.7302246E-4
1237386097953	-0.44947147	-4.0452433	8.989429	0.061270714
1237386098033	-0.44947147	-3.9635212	8.934948	-0.02172184
1237386098073	-0.44947147	-3.9090397	8.934948	-0.043663025
1237386098192	-0.44947147	-3.9635212	8.989429	0.02805233
1237386098274	-0.44947147	-3.990762	9.043911	0.088829994
1237386098312	-0.44947147	-3.990762	9.0983925	0.13864803
1237386098352	-0.44947147	-3.990762	9.043911	0.088829994
1237386098392	-0.44947147	-3.9362805	9.043911	0.06698418
1237386098451	-0.44947147	-3.9362805	8.989429	0.017105103
1237386098491	-0.44947147	-3.990762	8.989429	0.0390625
1237386098531	-0.44947147	-3.990762	9.043911	0.088829994
1237386098571	-0.44947147	-3.990762	8.989429	0.0390625
1237386098611	-0.44947147	-3.9362805	9.043911	0.06698418
1237386098732	-0.44947147	-3.990762	9.0983925	0.13864803
1237386098772	-0.44947147	-3.990762	9.043911	0.088829994
1237386098853	-0.44947147	-4.0180025	8.989429	0.05013466
1237386098893	-0.44947147	-3.9635212	8.934948	-0.02172184
1237386099012	-0.44947147	-3.9090397	8.934948	-0.043663025
1237386099052	-0.44947147	-3.9635212	8.934948	-0.02172184
1237386099092	-0.44947147	-4.0180025	8.989429	0.05013466
1237386099132	-0.44947147	-4.0180025	8.934948	4.7302246E-4
1237386099173	-0.44947147	-4.0452433	8.989429	0.061270714
1237386099253	-0.44947147	-4.0180025	8.934948	4.7302246E-4
1237386099292	-0.44947147	-4.0180025	8.989429	0.05013466
1237386099332	-0.44947147	-4.0180025	8.934948	4.7302246E-4
1237386099372	-0.44947147	-4.0180025	8.989429	0.05013466
1237386099492	-0.44947147	-4.0180025	9.043911	0.09984779
1237386099532	-0.44947147	-3.9635212	8.989429	0.02805233
1237386099573	-0.44947147	-3.990762	9.043911	0.088829994
1237386099652	-0.44947147	-3.990762	8.989429	0.0390625
1237386099692	-0.44947147	-4.0452433	8.989429	0.061270714
1237386099732	-0.44947147	-4.0452433	8.934948	0.011665344
1237386099772	-0.44947147	-4.167826	9.043911	0.16155529
1237386099813	-0.3949901	-4.3585114	9.0983925	0.2895565
1237386099853	-0.3405087	-4.467474	9.2073555	0.43296242
1237386099893	-0.2860273	-4.385752	9.248216	0.4327898
1237386099933	-0.2860273	-4.2223077	9.139254	0.26487637
1237386099973	-0.3949901	-3.9090397	9.0983925	0.103816986
1237386100012	-0.17706452	-3.5821514	8.989429	-0.12816906
1237386100053	-0.013620348	-3.6638734	9.248216	0.14089489
1237386100094	0.040861044	-3.5004294	9.370799	0.19667721
1237386100133	0.20430522	-3.3642259	9.438901	0.21595478
1237386100172	0.14982383	-3.4187074	9.711308	0.4899273
1237386100213	0.20430522	-3.173541	9.752169	0.45092773
1237386100252	0.626536	-2.8466527	9.752169	0.3717966
1237386100294	0.84446156	-2.547005	9.656827	0.21605682
1237386100333	0.89894295	-2.2609777	9.711308	0.2048235
1237386100376	0.5720546	-2.3971813	9.861132	0.35778046
1237386100412	0.626536	-2.3971813	9.861132	0.36099148
1237386100453	0.9942854	-1.9885708	9.765789	0.20902061
1237386100493	1.7978859	-1.3892754	9.929234	0.3792305
1237386100533	2.4925237	-0.6401563	9.697687	0.22667503
1237386100572	2.6559677	0.2860273	9.697687	0.25223255
1237386100613	2.1792557	0.92618364	9.384419	-0.12810135
1237386100653	2.1247742	1.1985906	8.771504	-0.7022238
1237386100694	2.1792557	1.2803127	8.866846	-0.5866003
1237386100733	2.1247742	1.0079057	8.812365	-0.68588734
1237386100773	2.7649305	1.253072	8.771504	-0.52471447
1237386100812	2.1247742	1.1441092	8.049625	-1.4030724
1237386100853	1.8523673	1.1713499	8.090487	-1.4245682
1237386100893	1.96133	1.1168685	7.8180795	-1.6692934
1237386100933	1.6344417	0.25878662	7.668256	-1.961874
1237386100973	1.525479	-0.17706452	8.158588	-1.5047827
1237386101013	0.9942854	-1.4165162	7.872561	-1.746108
1237386101053	-0.027240695	-3.445948	7.981524	-1.1129732
1237386101093	-0.7763598	-5.175732	7.8861814	-0.3418312
1237386101133	-1.3211738	-6.8782754	8.158588	0.9459648
1237386101173	-1.4301366	-8.22669	8.7034025	2.2545662
1237386101212	-1.3756552	-8.335652	8.921328	2.480156
1237386101253	-1.1032481	-7.6546354	9.152874	2.176075
1237386101293	-1.4709976	-6.932757	9.0983925	1.7262459
1237386101333	-2.0158114	-6.197258	8.812365	1.1536083
1237386101373	-2.6014864	-6.142777	10.079058	2.2800713
1237386101413	-2.7104492	-5.843129	11.304889	3.2044678
1237386101453	-2.070293	-5.1212506	12.312795	3.688469
1237386101494	-1.5799603	-3.5549107	16.821129	7.45846
1237386101532	1.3211738	-1.4165162	15.990288	6.3005314
1237386101573	1.96133	-0.7491191	14.723596	5.0658836
1237386101613	-1.2666923	-2.0158114	12.408136	2.8278208
1237386101653	-1.4709976	-1.5799603	7.872561	-1.6434813
1237386101693	-2.6014864	-1.96133	6.66035	-2.3921504
1237386101733	-2.4925237	-0.92618364	5.992953	-3.2502809
1237386101773	2.3971813	2.2064962	7.096201	-1.9982462
1237386101812	3.7319753	2.4925237	6.7148314	-1.7301865
1237386101853	3.2007818	2.8738933	6.9872384	-1.6014223
1237386101893	2.547005	1.7706453	7.1506824	-2.0121217
1237386101933	0.19068487	0.23154591	7.43671	-2.3638935
1237386101973	-1.6889231	-1.6889231	7.4911914	-1.9438982
1237386102012	-5.298315	-4.767122	10.242501	2.671588
1237386102053	-9.112013	-5.87037	9.752169	4.773981
1237386102093	-9.643207	-7.681876	9.752169	5.913002
1237386102133	-8.894087	-7.84532	10.18802	5.8282337
1237386102172	-6.578628	-6.578628	7.709117	2.2758656
1237386102213	-3.5140498	-6.6331096	9.084772	1.978076
1237386102252	-3.2007818	-6.033814	9.302697	1.7342377
1237386102293	-3.7319753	-5.9248514	9.302697	1.836875
1237386102332	-3.840938	-6.0882955	9.534244	2.1399794
1237386102373	-4.5900574	-5.87037	9.370799	2.1658907
1237386102413	-4.6445384	-5.3119354	8.975809	1.6105976
1237386102453	-4.004382	-4.7943625	8.989429	1.1400766
1237386102493	-3.3642259	-3.5821514	8.880466	0.34285736
1237386102533	-1.9068487	-2.3971813	8.812365	-0.4771099
1237386102572	-0.61291564	-1.3075534	8.812365	-0.87674904
1237386102613	-0.08172209	-0.12258313	8.390134	-1.4152231
1237386102653	0.7218784	0.980665	7.8861814	-1.8270092
1237386102693	1.2666923	1.8251266	7.368608	-2.1104188
1237386102732	1.3211738	2.2064962	7.3141265	-2.0535498
1237386102773	1.1577295	2.233737	7.327747	-2.0590186
1237386102813	0.7218784	1.7434045	7.4503303	-2.1210804
1237386102853	-0.08172209	0.667397	7.709117	-2.0682664
1237386102893	-1.3756552	-0.7491191	7.872561	-1.779769
1237386102933	-2.6559677	-2.982856	8.158588	-0.72291946
1237386102972	-3.3642259	-5.066769	8.553578	0.68877125
1237386103013	-3.7319753	-6.306221	8.921328	1.7383118
1237386103052	-3.7864566	-7.286886	9.139254	2.4800062
1237386103093	-3.568531	-7.2596455	9.384419	2.5830307
1237386103132	-3.6230125	-6.5513873	9.316318	2.144947
1237386103173	-3.6774938	-6.4151835	9.248216	2.034297
1237386103212	-3.4187074	-6.197258	9.302697	1.8823938
1237386103253	-3.3642259	-5.5026207	8.771504	1.080781
1237386103293	-3.6230125	-5.175732	8.771504	1.0032396
1237386103333	-3.8954194	-5.09401	9.030291	1.2689705
1237386103373	-3.840938	-4.767122	8.975809	1.0581284
1237386103413	-3.3642259	-4.2495484	9.0983925	0.78378963
1237386103453	-2.233737	-3.8545585	9.2073555	0.42186928
1237386103493	-0.939804	-2.9556155	9.139254	-0.15549183
1237386103533	0.08172209	-1.7434045	8.866846	-0.7696657
1237386103573	0.939804	-0.667397	8.390134	-1.3377066
1237386103612	1.3211738	0.7491191	7.7772183	-1.8825221
1237386103654	1.525479	1.7706453	7.2596455	-2.18007
1237386103693	1.6344417	2.3699405	7.096201	-2.1487074
1237386103733	1.3756552	2.5742457	7.2187843	-2.020122
1237386103773	0.88532263	1.7434045	7.504812	-2.0513
1237386103813	0.027240695	0.61291564	7.872561	-1.9102192
1237386103853	-1.4301366	-1.0351465	7.9270425	-1.6853933
1237386103893	-2.982856	-3.3097446	8.267551	-0.41493797
1237386103932	-3.9499009	-5.3936577	8.989429	1.3961668
1237386103973	-4.3312707	-6.7965536	9.479762	2.6359758
1237386104013	-4.276789	-7.177923	9.861132	3.1183414
1237386104053	-3.6774938	-6.8782754	9.547864	2.522029
1237386104093	-3.568531	-6.1700177	9.0983925	1.7512159
1237386104133	-6.6875906	-6.3607025	8.144968	2.5028143
1237386104172	-7.8180795	-6.2517395	7.9270425	2.9622421
1237386104213	-8.308413	-5.9793324	8.3765135	3.420145
1237386104253	-9.00305	-5.8158884	8.7034025	4.000185
1237386104294	-6.0474343	-4.930566	9.697687	2.6403208
1237386104333	-4.004382	-3.881799	9.915613	1.5697651
1237386104373	-2.6014864	-2.5197644	9.80665	0.64740753
1237386104413	0.08172209	-0.20430522	8.921328	-0.88260937
1237386104453	1.5799603	1.1168685	7.981524	-1.5939531
1237386104493	1.7434045	1.8251266	7.368608	-2.0177522
1237386104533	2.547005	2.7104492	6.5513873	-2.2730951
1237386104573	2.233737	2.547005	6.3198414	-2.6360707
1237386104613	2.1247742	2.8738933	6.605869	-2.295896
1237386104652	1.96133	2.7649305	6.8782754	-2.1383824
1237386104694	0.61291564	1.8523673	7.4503303	-2.1050692
1237386104733	-1.1032481	0.20430522	7.940663	-1.7871103
1237386104773	-2.819412	-1.96133	8.19945	-0.9169445
1237386104813	-4.276789	-4.113345	8.430995	0.50316143
1237386104853	-4.971427	-6.006573	8.771504	1.9293337
1237386104893	-4.535576	-7.205164	9.316318	2.8139524
1237386104932	-4.535576	-7.981524	9.711308	3.5569448
1237386104972	-3.7864566	-7.3141265	9.820271	3.010191
1237386105013	-3.4595683	-6.7965536	9.302697	2.2225618
1237386105053	-4.113345	-6.469665	9.248216	2.2060795
1237386105093	-4.0588636	-5.5026207	9.0983925	1.5746489
1237386105133	-4.3312707	-5.339176	8.825985	1.3810539
1237386105173	-4.004382	-4.930566	9.302697	1.4577065
1237386105213	-3.2007818	-3.990762	9.139254	0.6669903
1237386105253	-2.547005	-3.2007818	9.043911	0.1193037
1237386105293	-3.2007818	-2.7649305	9.043911	0.17744637
1237386105333	-2.3426998	-1.0896279	8.539958	-0.88440704
1237386105373	-2.4925237	-0.14982383	7.709117	-1.7032185
1237386105414	-0.9942854	1.1441092	6.782933	-2.8564148
1237386105453	1.7434045	2.233737	6.2789803	-2.9179177
1237386105493	0.19068487	2.0430522	6.2108784	-3.265593
1237386105533	0.50395286	1.9885708	6.8782754	-2.6289725
1237386105572	-0.7763598	1.2258313	7.5456724	-2.122734
1237386105613	-2.547005	-0.3677494	7.9270425	-1.4723549
1237386105653	-2.6559677	-3.1190596	8.757884	-0.1379776
1237386105693	-4.276789	-5.366417	9.425281	1.8520489
1237386105733	-4.5900574	-6.6331096	9.534244	2.682088
1237386105772	-4.2223077	-7.3413672	10.296983	3.525694
1237386105813	-3.7319753	-6.7965536	9.915613	2.780651
1237386105853	-3.1463003	-5.87037	8.921328	1.3266573
1237386105893	-3.7864566	-5.6660647	9.2073555	1.6483469
1237386105932	-4.535576	-5.2302136	8.662541	1.2823629
1237386105973	-4.535576	-3.881799	8.866846	0.8826332
1237386106013	-4.426613	-3.9362805	9.643207	1.510622
1237386106053	-3.8954194	-3.4731886	9.261836	0.8243866
1237386106093	-3.091819	-2.4925237	9.261836	0.27073193
1237386106133	-2.6014864	-2.73769	9.193735	0.13253689
1237386106173	-1.7434045	-1.7978859	8.7034025	-0.75010204
1237386106213	-0.7763598	-0.7763598	8.553578	-1.1828938
1237386106253	-2.070293	-0.50395286	8.322033	-1.2161722
1237386106293	-1.4301366	0.61291564	7.709117	-1.9420815
1237386106332	-0.55843425	1.6616824	7.2596455	-2.3383512
1237386106373	-0.50395286	2.3426998	6.891896	-2.5100455
1237386106413	1.0487667	3.1190596	6.619489	-2.414351
1237386106453	0.46309182	2.4925237	6.7148314	-2.6291795
1237386106493	-0.88532263	0.3405087	6.8782754	-2.863278
1237386106533	-2.982856	-3.2007818	7.504812	-1.1196117
1237386106573	-4.6445384	-5.952092	8.21307	1.3492298
1237386106613	-5.448139	-7.5456724	8.880466	3.057334
1237386106652	-5.298315	-7.9270425	9.547864	3.6867495
1237386106692	-4.113345	-6.8237944	9.547864	2.6290035
1237386106732	-3.5140498	-6.2244987	9.765789	2.2955627
1237386106773	-3.7864566	-6.115536	9.656827	2.2345848
1237386106813	-4.4810944	-5.611583	9.152874	1.8271437
1237386106853	-4.69902	-5.2574544	9.248216	1.823101
1237386106893	-4.276789	-4.8216033	9.030291	1.287715
1237386106933	-3.4187074	-4.2495484	8.989429	0.70791435
1237386106972	-2.3971813	-3.4187074	9.384419	0.46473598
1237386107014	-1.3756552	-2.3971813	9.193735	-0.20645905
1237386107053	-0.35412905	-1.3075534	8.5944395	-1.1061049
1237386107093	0.61291564	0.14982383	7.8317	-1.9495745
1237386107133	1.4301366	1.3620348	7.000859	-2.5325556
1237386107173	1.6889231	2.315459	6.496906	-2.7056928
1237386107212	1.6344417	2.8738933	6.496906	-2.5169005
1237386107253	0.9942854	2.3971813	6.9463773	-2.3913121
1237386107293	-0.08172209	1.3075534	7.2187843	-2.4699464
1237386107333	-1.525479	-0.6401563	7.43671	-2.1881504
1237386107373	-3.3097446	-3.5549107	7.8180795	-0.6026201
1237386107413	-4.426613	-5.952092	8.267551	1.300767
1237386107452	-4.7535014	-7.43671	9.043911	2.8303099
1237386107493	-4.2223077	-8.144968	9.602345	3.473916
1237386107532	-3.2007818	-7.4911914	9.493382	2.702837
1237386107573	-2.7649305	-6.605869	9.438901	2.0413542
1237386107613	-3.2007818	-6.1700177	9.0983925	1.6430168
1237386107653	-4.113345	-5.47538	8.921328	1.4401045
1237386107693	-4.535576	-5.1484914	9.193735	1.6651926
1237386107733	-4.5900574	-4.8488436	9.0983925	1.4787674
1237386107773	-3.9499009	-4.2495484	8.825985	0.7554703
1237386107813	-2.8738933	-3.881799	8.921328	0.33818626
1237386107853	-1.96133	-2.7921712	8.866846	-0.30591393
1237386107893	-0.939804	-1.7706453	8.499097	-1.0743504
1237386107933	-0.027240695	-0.84446156	8.21307	-1.5502357
1237386107973	0.88532263	0.667397	7.4911914	-2.2338595
1237386108013	1.3211738	1.5527196	6.932757	-2.5803404
1237386108053	1.4709976	2.3971813	6.67397	-2.564262
1237386108093	1.3756552	2.73769	6.782933	-2.363831
1237386108133	0.667397	1.879608	7.368608	-2.1728616
1237386108173	-0.50395286	0.3405087	7.709117	-2.0735784
1237386108213	-2.1247742	-1.9885708	7.940663	-1.3495102
1237386108253	-3.7319753	-4.5219555	8.322033	0.3733282
1237386108293	-4.535576	-6.578628	8.812365	2.0890455
1237386108332	-4.971427	-7.3413672	8.921328	2.771141
1237386108372	-4.5900574	-7.3413672	8.975809	2.6644945
1237386108413	-3.840938	-6.905516	9.248216	2.3575783
1237386108453	-3.8954194	-6.4424243	9.043911	1.9607391
1237386108493	-4.167826	-6.3334618	9.043911	1.9948683
1237386108533	-4.4810944	-5.87037	9.030291	1.8590088
1237386108573	-4.6445384	-5.5843425	8.975809	1.7398539
1237386108613	-4.276789	-4.739881	8.717023	0.99815845
1237386108653	-3.091819	-3.7455957	8.771504	0.21972084
1237386108693	-1.7978859	-2.9556155	9.030291	-0.13637543
1237386108732	-0.8308412	-1.7978859	8.812365	-0.77445984
1237386108774	0.13620348	-0.7218784	8.499097	-1.2758646
1237386108812	0.8308412	0.7491191	7.8317	-1.8954558
1237386108853	1.3211738	1.879608	7.1506824	-2.2959452
1237386108893	1.5799603	2.6559677	6.605869	-2.5136437
1237386108933	1.3211738	2.901134	6.5650077	-2.5086088
1237386108973	0.40861043	2.0158114	6.8374147	-2.6665735
1237386109013	-0.88532263	0.50395286	7.04172	-2.691625
1237386109053	-2.4516625	-2.070293	7.3141265	-1.8195853
1237386109093	-4.2223077	-4.739881	7.668256	0.14807224
1237386109132	-5.3527966	-6.8237944	8.322033	2.2130356
1237386109173	-5.448139	-8.253931	8.21307	3.0488596
1237386109214	-2.9283748	-7.096201	9.493382	2.4021893
1237386109252	-1.6889231	-7.1506824	10.256122	2.8097181
1237386109293	-1.9068487	-6.2789803	9.874752	2.0496721
1237386109333	-2.070293	-5.066769	9.656827	1.2934656
1237386109375	-4.385752	-5.843129	8.880466	1.6929007
1237386109413	-6.9599977	-4.3585114	8.553578	2.0509167
1237386109452	-6.851035	-2.819412	9.152874	1.9687853
1237386109493	-7.5456724	-2.4244218	9.820271	2.8128872
1237386109532	-8.308413	-1.9885708	9.438901	2.9242954
1237386109573	-6.101916	-3.9090397	7.7227373	0.783659
1237386109613	-4.2223077	-3.3097446	5.7886477	-1.9142022
1237386109652	-2.7104492	-3.0373375	4.8488436	-3.4755177
1237386109693	-0.7763598	-1.9885708	4.235928	-5.063209
1237386109733	-1.7978859	0.040861044	5.012288	-4.481512
1237386109773	-2.7649305	-0.2860273	6.0610547	-3.1385894
1237386109813	-3.2007818	-0.06810174	6.891896	-2.2074485
1237386109862	-5.298315	-1.8251266	6.115536	-1.5118923
1237386109902	-4.5900574	-1.8251266	5.4617596	-2.442512
1237386109943	-5.611583	-4.2495484	5.339176	-0.9717579
1237386109983	-4.385752	-5.066769	5.175732	-1.3393497
1237386110022	-3.5140498	-4.576437	6.1700177	-1.3590803
1237386110063	-3.7319753	-5.638824	7.2596455	0.1143589
1237386110103	-3.840938	-5.4208984	7.4911914	0.2061863
1237386110144	-6.4151835	-5.6660647	7.3958488	1.5051775
1237386110183	-7.3413672	-5.7205462	7.559293	2.1834793
1237386110223	-7.5456724	-5.366417	7.4911914	2.1035786
1237386110263	-7.5456724	-4.8216033	7.43671	1.833353
1237386110303	-6.905516	-4.3585114	7.7227373	1.4327202
1237386110342	-5.8839903	-3.4187074	7.7227373	0.4865303
1237386110383	-4.5900574	-1.96133	7.763598	-0.5768671
1237386110422	-2.8738933	-0.313268	7.368608	-1.8912358
1237386110463	-1.1032481	1.4709976	6.4560447	-3.093864
1237386110503	-0.027240695	2.8466527	6.0610547	-3.1103406
1237386110543	0.027240695	3.2007818	5.7750273	-3.2038713
1237386110582	-0.667397	2.819412	5.7750273	-3.3455787
1237386110623	-2.3426998	1.5799603	6.115536	-3.0698628
1237386110663	-4.3312707	-0.667397	6.4560447	-2.0037122
1237386110703	-6.2108784	-3.3914666	6.8237944	0.023976326
1237386110743	-7.177923	-5.47538	7.43671	1.8898029
1237386110782	-7.2324047	-6.742072	7.981524	2.9003534
1237386110823	-6.6875906	-7.014479	8.539958	3.1106892
1237386110863	-5.8839903	-6.5241466	8.866846	2.6756086
1237386110903	-5.448139	-6.142777	9.030291	2.3983517
1237386110943	-5.829509	-5.7886477	8.771504	2.2112913
1237386110982	-6.101916	-5.2302136	8.322033	1.7624788
1237386111023	-6.4151835	-4.7126403	8.090487	1.5432186
1237386111063	-6.3198414	-4.6036777	8.036005	1.405469
1237386111103	-6.101916	-4.467474	8.662541	1.6925373
1237386111143	-5.3936577	-3.8545585	9.043911	1.4068012
1237386111183	-3.840938	-2.6287272	8.866846	0.20753765
1237386111222	-2.4516625	-1.1441092	7.981524	-1.379055
1237386111263	-0.35412905	0.92618364	6.510526	-3.2210464
1237386111303	0.9942854	2.0158114	6.0610547	-3.342249
1237386111343	1.4301366	2.2064962	6.101916	-3.1623073
1237386111383	1.1032481	2.2609777	6.374323	-2.9538283
1237386111422	-0.46309182	1.253072	6.67397	-3.0002913
1237386111462	-2.2882185	-0.12258313	6.3879433	-3.020135
1237386111503	-4.5900574	-2.5197644	6.66035	-1.3344545
1237386111543	-6.4151835	-4.9850473	7.1506824	1.0163593
1237386111583	-7.1234417	-6.7965536	7.872561	2.7994509
1237386111622	-7.014479	-8.063246	8.4854765	3.839674
1237386111663	-6.0474343	-7.954283	8.7034025	3.444437
1237386111703	-5.298315	-7.3413672	8.757884	2.789712
1237386111743	-5.298315	-6.9872384	8.60806	2.481244
1237386111782	-5.611583	-6.2244987	7.8861814	1.701005
1237386111823	-6.469665	-5.5843425	7.9270425	1.8500843
1237386111862	-6.4151835	-5.09401	7.8180795	1.5170374
1237386111903	-5.7205462	-4.30403	7.7227373	0.7237816
1237386111943	-4.862464	-3.4187074	8.390134	0.4756384
1237386111985	-3.4187074	-2.3971813	8.253931	-0.55670834
1237386112023	-2.1792557	-1.1985906	7.872561	-1.5505619
1237386112063	-1.0487667	0.20430522	7.2187843	-2.5092192
1237386112103	-0.027240695	1.253072	6.7284517	-2.9624557
1237386112143	0.7218784	2.2609777	6.2108784	-3.15773
1237386112183	0.88532263	2.7649305	6.2108784	-2.9507294
1237386112223	0.027240695	2.0158114	6.2244987	-3.2638202
1237386112262	-1.7434045	0.25878662	6.3334618	-3.2325215
1237386112303	-4.167826	-2.901134	7.1506824	-1.0362673
1237386112343	-6.3198414	-5.529861	7.5456724	1.4830322
1237386112386	-6.905516	-7.014479	8.090487	2.9348192
1237386112423	-6.6331096	-7.954283	8.5944395	3.6519213
1237386112463	-5.938472	-8.063246	8.866846	3.5687876
1237386112503	-5.298315	-7.7363577	8.7034025	2.9868078
1237386112543	-5.611583	-7.518432	8.4854765	2.8432503
1237386112583	-6.0474343	-6.851035	7.981524	2.3264809
1237386112623	-6.469665	-5.7886477	7.4503303	1.6332979
1237386112662	-6.469665	-5.175732	7.6137743	1.445653
1237386112703	-6.0474343	-4.658159	7.872561	1.1590748
1237386112743	-5.3527966	-3.8273177	8.308413	0.7919588
1237386112783	-3.8954194	-2.4244218	8.104107	-0.49382782
1237386112823	-2.3971813	-1.0079057	7.559293	-1.8125739
1237386112863	-1.1577295	0.3949901	7.096201	-2.6057878
1237386112903	0.027240695	1.607201	6.5513873	-3.060947
1237386112943	0.7218784	2.3426998	6.2244987	-3.116827
1237386112983	0.61291564	2.3971813	6.3879433	-2.9562516
1237386113023	-0.027240695	1.607201	6.605869	-3.0080223
1237386113063	-1.5799603	0.17706452	6.66035	-2.959177
1237386113104	-3.840938	-2.315459	6.9463773	-1.5382576
1237386113143	-5.829509	-4.8488436	7.559293	0.90023327
1237386113183	-6.6331096	-6.6875906	8.090487	2.6101923
1237386113222	-6.469665	-7.954283	8.5944395	3.5721235
1237386113262	-5.7205462	-8.172209	8.812365	3.5037746
1237386113303	-4.971427	-7.7363577	8.648921	2.8175392
1237386113343	-5.298315	-7.205164	8.444615	2.493678
1237386113383	-5.7750273	-6.3334618	7.8317	1.8036556
1237386113423	-6.3198414	-5.529861	7.763598	1.6298361
1237386113463	-6.7965536	-4.9850473	7.763598	1.6527252
1237386113504	-6.4151835	-4.30403	7.7227373	1.1167154
1237386113542	-5.5026207	-3.6911142	8.390134	0.8843508
1237386113583	-4.3312707	-2.8466527	8.430995	0.09006691
1237386113622	-2.819412	-1.8523673	8.144968	-0.99070644
1237386113663	-1.3756552	-0.667397	7.504812	-2.1476655
1237386113703	-0.35412905	0.53119355	6.8374147	-2.9394956
1237386113743	0.50395286	1.6616824	6.4424243	-3.1343203
1237386113782	0.88532263	2.6014864	6.101916	-3.1144977
1237386113824	0.55843425	2.4516625	6.2789803	-3.0429163
1237386113863	-0.8308412	1.1985906	6.3879433	-3.2543426
1237386113904	-2.7649305	-1.0896279	6.66035	-2.513339
1237386113943	-4.7535014	-3.8273177	7.2596455	-0.3226328
1237386113983	-6.1563973	-5.843129	7.7772183	1.7054529
1237386114022	-6.3198414	-7.205164	8.267551	2.850648
1237386114063	-5.5571017	-7.981524	8.825985	3.3266706
1237386114103	-4.6445384	-7.9270425	9.043911	3.085287
1237386114143	-4.535576	-7.763598	8.934948	2.8692398
1237386114183	-5.134871	-7.2596455	8.825985	2.7220116
1237386114223	-5.6660647	-6.142777	8.090487	1.8249435
1237386114263	-6.374323	-5.3119354	8.253931	1.8970261
1237386114304	-6.0474343	-4.5219555	8.267551	1.3903112
1237386114343	-4.971427	-3.800077	8.158588	0.47528744
1237386114383	-3.8954194	-3.173541	8.7034025	0.24297047
1237386114423	-2.3426998	-2.070293	8.090487	-1.1331081
1237386114463	-1.2122109	-1.1713499	7.6137743	-2.0085049
1237386114503	-0.40861043	0.25878662	7.327747	-2.4629588
1237386114543	0.13620348	1.3892754	6.8782754	-2.7881522
1237386114582	0.40861043	2.0975335	6.605869	-2.8637319
1237386114623	0.55843425	2.73769	6.4560447	-2.7719288
1237386114663	0.027240695	1.9068487	6.510526	-3.0225682
1237386114704	-1.4709976	0.23154591	6.605869	-3.0350218
1237386114743	-3.4595683	-2.4516625	7.1506824	-1.4933167
1237386114783	-5.5026207	-5.284695	7.940663	1.2052059
1237386114823	-6.374323	-7.04172	8.390134	2.8666344
1237386114863	-6.101916	-7.981524	8.771504	3.5304174
1237386114903	-5.243834	-7.9270425	8.880466	3.200982
1237386114943	-4.385752	-7.3141265	8.717023	2.388339
1237386114982	-4.4810944	-6.932757	8.662541	2.159258
1237386115023	-5.134871	-6.3607025	8.430995	1.9367352
1237386115063	-5.6660647	-5.47538	8.308413	1.6438437
1237386115103	-5.938472	-5.012288	8.158588	1.4606047
1237386115143	-5.611583	-4.5219555	8.267551	1.161046
1237386115183	-5.0803895	-4.3312707	8.7034025	1.1623735
1237386115223	-4.385752	-3.718355	8.812365	0.7156477
1237386115263	-3.3642259	-2.547005	8.662541	-0.1710453
1237386115304	-2.233737	-1.4982382	7.995144	-1.371212
1237386115343	-0.88532263	0.12258313	7.3141265	-2.438118
1237386115383	0.13620348	1.334794	6.5513873	-3.1192813
1237386115423	0.8308412	2.2882185	6.0610547	-3.2749867
1237386115463	0.9942854	2.73769	6.2244987	-2.934392
1237386115503	0.29964766	1.879608	6.496906	-3.0366797
1237386115542	-1.2122109	0.06810174	6.66035	-3.036543
1237386115583	-3.568531	-2.819412	7.0553403	-1.4125252
1237386115623	-5.5571017	-5.3936577	7.6137743	1.053482
1237386115663	-6.4151835	-6.932757	8.158588	2.6745462
1237386115703	-6.469665	-7.4911914	8.499097	3.2397738
1237386115742	-5.5571017	-7.43671	8.662541	2.8908167
1237386115782	-5.0803895	-7.43671	9.0983925	2.9955273
1237386115823	-5.3527966	-7.3413672	8.866846	2.888588
1237386115863	-5.7205462	-6.905516	8.4854765	2.5389605
1237386115904	-6.374323	-6.0610547	8.049625	2.11664
1237386115942	-6.4151835	-4.9578066	7.4503303	1.2043371
1237386115983	-5.7750273	-3.881799	7.43671	0.37784576
1237386116023	-4.971427	-3.1190596	8.036005	0.14427948
1237386116063	-4.004382	-1.9885708	8.104107	-0.55105495
1237386116103	-2.7649305	-0.61291564	7.7772183	-1.5298376
1237386116143	-1.9068487	0.50395286	7.5456724	-2.0074697
1237386116183	-0.939804	1.6616824	6.8782754	-2.6683664
1237386116223	0.13620348	2.5742457	6.510526	-2.8043475
1237386116263	0.50395286	2.6832085	6.510526	-2.7468677
1237386116303	0.19068487	2.0430522	6.605869	-2.8894305
1237386116343	-1.1577295	0.89894295	6.605869	-3.0401192
1237386116383	-3.4595683	-1.3892754	6.782933	-2.0666966
1237386116423	-5.7750273	-4.140586	7.2187843	0.32282352
1237386116463	-6.905516	-6.033814	7.6546354	2.1384954
1237386116503	-6.9599977	-7.409469	8.308413	3.322383
1237386116542	-6.26536	-7.954283	9.030291	3.760645
1237386116582	-5.243834	-7.518432	8.812365	2.9087887
1237386116622	-5.243834	-7.1234417	8.7034025	2.6026382
1237386116662	-5.7205462	-6.905516	8.4854765	2.5389605
1237386116703	-5.992953	-5.8976107	7.559293	1.4999943
1237386116742	-6.469665	-5.175732	7.8317	1.5942392
1237386116783	-6.1563973	-4.767122	8.090487	1.4220028
1237386116823	-4.971427	-3.8273177	8.144968	0.47459316
1237386116863	-3.840938	-2.982856	8.662541	0.12762737
1237386116903	-2.4925237	-1.879608	8.267551	-0.96934223
1237386116943	-1.1032481	-0.7491191	7.6546354	-2.0367222
1237386116982	-0.35412905	0.55843425	7.1506824	-2.6254582
1237386117023	0.29964766	1.6344417	6.4560447	-3.1401892
1237386117063	0.61291564	2.3426998	6.115536	-3.229136
1237386117103	0.24516626	2.315459	6.3198414	-3.0715294
1237386117142	-0.88532263	1.1713499	6.605869	-3.0395708
1237386117183	-2.982856	-1.0623871	7.3958488	-1.761486
1237386117222	-4.971427	-3.9635212	7.7227373	0.19661236
1237386117263	-5.992953	-6.6875906	7.9270425	2.1715536
1237386117303	-6.26536	-9.057531	8.648921	4.19683
1237386117342	-5.3527966	-10.038197	8.648921	4.483964
1237386117383	-4.0588636	-9.275456	8.757884	3.580246
1237386117423	-3.6230125	-6.9599977	9.030291	2.156374
1237386117463	-2.982856	-4.8216033	8.539958	0.44401646
1237386117503	-2.233737	-3.9090397	8.444615	-0.23681736
1237386117542	-2.7649305	-3.255263	9.152874	0.2936802
1237386117583	-3.8954194	-3.718355	9.697687	1.2859421
1237386117623	-4.9169455	-4.2223077	10.296983	2.3601933
1237386117664	-4.7535014	-2.547005	10.487668	1.9863214
1237386117703	-3.0373375	-1.607201	9.261836	0.07212067
1237386117743	-0.50395286	-0.3677494	7.5456724	-2.2352314
1237386117782	1.7434045	1.7706453	6.0474343	-3.2685995
1237386117823	2.4516625	2.6287272	5.066769	-3.5943232
1237386117863	2.3971813	3.0645783	5.6252036	-2.9669843
1237386117903	1.4301366	2.6014864	6.66035	-2.514649
1237386117943	-0.027240695	0.95342433	6.9872384	-2.754611
1237386117983	-1.7434045	-1.0623871	7.273266	-2.2522793
1237386118023	-4.113345	-3.6911142	7.1098213	-0.8014574
1237386118063	-5.8839903	-6.3607025	7.096201	1.3931684
1237386118103	-7.1234417	-7.7363577	7.709117	3.2327185
1237386118143	-7.286886	-8.499097	7.763598	3.817109
1237386118182	-7.0689607	-8.390134	7.763598	3.6335135
1237386118223	-7.3822284	-8.008764	8.3765135	3.9339314
1237386118263	-6.905516	-7.2324047	7.981524	2.9878235
1237386118303	-7.2324047	-6.1700177	8.049625	2.6502066
1237386118343	-7.0689607	-5.066769	8.267551	2.1931314
1237386118383	-5.5571017	-3.7728362	7.9270425	0.5834255
1237386118423	-4.807983	-2.8466527	8.3765135	0.26241684
1237386118463	-3.4187074	-1.8251266	7.8861814	-1.0196991
1237386118503	-1.6889231	-0.2860273	7.0553403	-2.54634
1237386118543	-0.50395286	1.2258313	6.605869	-3.0691333
1237386118582	0.7218784	2.4925237	5.938472	-3.3259687
1237386118623	1.1032481	3.173541	6.115536	-2.82895
1237386118663	0.35412905	2.5197644	6.619489	-2.7149467
1237386118703	-0.8308412	1.0623871	6.8237944	-2.8508515
1237386118743	-2.7649305	-0.980665	7.04172	-2.1782584
1237386118783	-4.9169455	-3.4731886	6.782933	-0.7376051
1237386118823	-6.742072	-6.115536	7.1098213	1.743453
1237386118863	-7.3413672	-7.7908387	7.763598	3.4170513
1237386118903	-6.742072	-8.444615	8.19945	3.7579374
1237386118942	-6.1563973	-8.717023	8.5944395	3.8956165
1237386118982	-5.5026207	-7.8998017	8.036005	2.7338076
1237386119023	-5.938472	-7.04172	7.6137743	2.1441164
1237386119063	-6.5241466	-6.496906	7.327747	1.9606838
1237386119103	-6.6331096	-5.4208984	7.43671	1.5374641
1237386119142	-6.101916	-4.3312707	7.981524	1.1340084
1237386119183	-5.1893525	-3.3097446	8.158588	0.41324997
1237386119222	-4.113345	-2.152015	8.267551	-0.3249216
1237386119263	-2.819412	-1.1441092	8.036005	-1.2138948
1237386119303	-1.6344417	0.23154591	7.368608	-2.2553988
1237386119343	-0.35412905	1.4709976	6.782933	-2.8570151
1237386119382	0.35412905	2.4516625	6.3879433	-2.955236
1237386119423	0.35412905	2.982856	6.3198414	-2.8092766
1237386119463	-0.29964766	2.152015	6.5513873	-2.904358
1237386119503	-1.8523673	0.53119355	6.619489	-2.912372
1237386119543	-4.113345	-2.0975335	7.000859	-1.4202757
1237386119583	-6.1563973	-4.8760843	7.3141265	0.92525864
1237386119622	-7.177923	-6.6875906	7.5456724	2.5700874
1237386119663	-6.905516	-7.7908387	7.981524	3.3115835
1237386119703	-6.0474343	-8.390134	8.308413	3.4596796
1237386119743	-5.5026207	-8.22669	8.430995	3.194847
1237386119783	-5.611583	-7.7363577	8.19945	2.7858896
1237386119823	-6.2108784	-7.096201	7.8317	2.4516773
1237386119863	-6.6331096	-5.7886477	7.327747	1.6477137
1237386119903	-6.3198414	-4.5491962	7.368608	0.9139824
1237386119943	-5.7750273	-3.881799	7.872561	0.70032406
1237386119983	-4.971427	-2.982856	8.104107	0.15773964
1237386120040	-3.6230125	-1.8251266	7.995144	-0.84118176
1237386120072	-5.8839903	-0.53119355	1.1849703	-3.781066
1237386120111	-5.7750273	0.013620348	0.6401563	-3.9962344
1237386120151	-5.0803895	1.0079057	0.13620348	-4.625455
1237386120191	-4.5900574	1.7161638	0.027240695	-4.9061823
1237386120232	-2.1247742	1.0079057	6.374323	-3.0123487
1237386120272	-2.233737	0.667397	6.2108784	-3.172646
1237386120312	-4.0588636	-1.525479	6.374323	-2.0973406
1237386120351	-6.905516	-4.930566	6.8782754	1.1161385
1237386120391	-7.3822284	-6.7965536	7.368608	2.6427202
1237386120432	-7.177923	-7.8998017	7.981524	3.5212965
1237386120472	-6.2108784	-8.117727	8.539958	3.5126362
1237386120511	-5.0803895	-7.681876	8.7034025	2.8650036
1237386120553	-5.0803895	-7.409469	8.3765135	2.476532
1237386120593	-5.938472	-6.905516	8.036005	2.3395004
1237386120633	-6.6331096	-6.3334618	7.940663	2.3245087
1237386120672	-6.6331096	-5.2302136	7.8861814	1.7495232
1237386120713	-6.0474343	-4.2223077	8.144968	1.1815186
1237386120753	-5.0803895	-3.3914666	8.648921	0.7818451
1237386120793	-3.6774938	-2.152015	8.21307	-0.55410194
1237386120833	-2.1792557	-1.0623871	7.668256	-1.7642641
1237386120873	-1.0487667	0.17706452	7.2596455	-2.4695039
1237386120913	0.08172209	1.334794	6.66035	-3.013373
1237386120953	0.667397	2.5197644	6.3879433	-2.907342
1237386120993	0.667397	3.0645783	6.3334618	-2.739133
1237386121033	-0.08172209	2.2609777	6.374323	-3.0427246
1237386121072	-1.6889231	0.61291564	6.374323	-3.1839528
1237386121113	-4.2223077	-2.3699405	6.67397	-1.561265
1237386121153	-6.469665	-5.3936577	7.2187843	1.2865438
1237386121193	-7.2324047	-7.096201	7.7772183	2.9663239
1237386121233	-6.905516	-8.144968	8.322033	3.7315512
1237386121272	-5.829509	-8.308413	8.717023	3.5724154
1237386121313	-5.134871	-7.8180795	8.662541	2.9420319
1237386121353	-5.5026207	-7.6546354	8.390134	2.8134384
1237386121395	-6.3198414	-7.096201	7.8861814	2.5419655
1237386121433	-6.578628	-5.9793324	7.709117	1.9603052
1237386121472	-6.4151835	-4.930566	7.763598	1.4066687
1237386121513	-5.448139	-3.800077	7.8861814	0.5042505
1237386121553	-4.0588636	-2.6559677	8.21307	-0.26814556
1237386121593	-2.7104492	-1.6344417	7.981524	-1.2204599
1237386121633	-1.4709976	-0.58567494	7.43671	-2.2032628
1237386121674	-0.667397	0.7491191	7.0553403	-2.6803308
1237386121713	0.027240695	1.8523673	6.619489	-2.9328122
1237386121753	0.29964766	2.7104492	6.496906	-2.7606506
1237386121793	0.19068487	2.819412	6.5513873	-2.6717978
1237386121833	-0.667397	1.6344417	6.2789803	-3.284196
1237386121873	-2.7104492	-0.84446156	6.510526	-2.704073
1237386121913	-5.243834	-4.2223077	7.04172	-0.06439686
1237386121952	-6.851035	-6.5241466	7.4911914	2.260625
1237386121993	-7.0689607	-7.7363577	8.144968	3.465951
1237386122032	-6.26536	-8.117727	8.5944395	3.573059
1237386122072	-5.298315	-7.8998017	8.757884	3.1231422
1237386122113	-5.0803895	-7.572913	8.430995	2.612732
1237386122153	-5.5571017	-7.2324047	7.9270425	2.2775154
1237386122193	-6.2108784	-6.578628	7.6546354	2.0443754
1237386122233	-6.101916	-5.448139	7.327747	1.1756754
1237386122273	-5.6660647	-4.576437	7.668256	0.76927567
1237386122313	-5.0259085	-3.9362805	8.3765135	0.7252083
1237386122353	-4.167826	-3.1190596	8.648921	0.28805828
1237386122394	-3.0373375	-1.8251266	8.322033	-0.761611
1237386122433	-1.5799603	-0.55843425	7.559293	-2.0638452
1237386122473	-0.40861043	0.84446156	6.769313	-2.9726415
1237386122513	0.667397	2.152015	6.101916	-3.3020391
1237386122553	1.0487667	2.7921712	5.8976107	-3.1977215
1237386122593	0.50395286	2.3971813	6.2244987	-3.1174922
1237386122633	-0.8308412	0.95342433	6.5513873	-3.1343198
1237386122673	-3.1463003	-1.7978859	6.9872384	-1.9356213
1237386122713	-5.448139	-4.8488436	7.559293	0.697464
1237386122752	-6.7965536	-6.932757	8.267551	2.9451609
1237386122793	-6.742072	-8.036005	8.390134	3.6256714
1237386122833	-5.7750273	-7.763598	8.21307	2.8850365
1237386122873	-5.134871	-7.205164	7.940663	2.0818071
1237386122913	-4.535576	-6.4424243	7.0553403	0.7694607
1237386122953	-4.5900574	-5.6933055	6.8782754	0.23292255
1237386122992	-4.807983	-5.4208984	6.8782754	0.184021
1237386123033	-4.7535014	-5.012288	6.619489	-0.23918247
1237386123072	-4.971427	-5.1212506	6.8374147	0.07730293
1237386123113	-5.0259085	-5.529861	6.932757	0.38659477
1237386123153	-4.971427	-5.5843425	6.769313	0.27915955
1237386123194	-4.69902	-5.448139	6.5650077	-0.06692028
1237386123232	-4.535576	-5.448139	6.3879433	-0.26414013
1237386123273	-4.6445384	-5.5843425	6.5513873	-0.025173187
1237386123312	-4.7535014	-5.529861	6.5513873	-0.0038022995
1237386123354	-4.6853995	-5.448139	6.5650077	-0.07348442
1237386123393	-4.739881	-5.448139	6.67397	0.026486397
1237386123432	-4.6853995	-5.339176	6.619489	-0.09699535
1237386123472	-4.5219555	-5.448139	6.67397	-0.07668686
1237386123513	-4.630918	-5.5571017	6.7284517	0.07256222
1237386123552	-4.630918	-5.5571017	6.67397	0.03553772
1237386123593	-4.576437	-5.5843425	6.66035	0.016226768
1237386123632	-4.630918	-5.5843425	6.7148314	0.07865429
1237386123672	-4.630918	-5.529861	6.7148314	0.047979355
1237386123712	-4.630918	-5.529861	6.769313	0.08518314
1237386123752	-4.630918	-5.47538	6.8237944	0.09230709
1237386123793	-4.5219555	-5.4208984	6.7148314	-0.063797
1237386123833	-4.467474	-5.4890003	6.7284517	-0.041430473
1237386123873	-4.4129925	-5.706926	6.782933	0.09545517
1237386123913	-4.372132	-5.829509	6.7284517	0.111554146
1237386123952	-4.739881	-5.938472	6.619489	0.27052975
1237386123993	-4.7943625	-5.911231	6.8237944	0.41551876
1237386124032	-4.5219555	-5.570722	7.04172	0.24655056
1237386124073	-4.30403	-5.325556	7.0553403	0.025137901
1237386124113	-3.6502533	-5.1076303	7.327747	-0.15739632
1237386124154	-3.173541	-5.243834	7.3141265	-0.26382065
1237386124193	-2.8466527	-5.7341666	7.04172	-0.28982735
1237386124233	-3.0645783	-6.374323	6.9463773	0.10676479
1237386124272	-3.4323275	-6.7556925	6.8374147	0.399745
1237386124313	-3.6502533	-6.782933	6.605869	0.340765
1237386124353	-3.5957718	-6.510526	6.3198414	-0.046684265
1237386124396	-2.8330324	-6.3198414	5.952092	-0.6746254
1237386124432	-1.8659877	-6.5922484	5.679685	-0.9072981
1237386124473	-1.607201	-7.2187843	5.611583	-0.5231266
1237386124513	-2.315459	-7.7227373	5.448139	-0.07606697
1237386124554	-2.6151068	-7.749978	5.6252036	0.1202755
1237386124593	-2.9964764	-7.5320525	5.7341666	0.12266731
1237386124633	-2.7921712	-7.504812	5.7750273	0.06600666
1237386124672	1.5527196	-6.4560447	6.66035	-0.40177345
1237386124713	1.8932283	-6.4832854	6.3879433	-0.5102463
1237386124753	1.9477097	-6.2108784	6.619489	-0.5229969
1237386124793	1.7297841	-6.0474343	7.327747	-0.1495552
1237386124832	-1.4437568	-6.810174	7.1098213	0.14385033
1237386124873	-0.42223078	-6.4832854	7.504812	0.119752884
1237386124913	0.6537767	-6.3198414	7.559293	0.06810188
1237386124953	1.7842655	-5.938472	7.8861814	0.2253437
1237386124993	2.5333846	-5.938472	5.679685	-1.2076788
1237386125033	2.2201166	-6.4832854	6.2244987	-0.5488806
1237386125072	0.54481393	-8.785124	6.006573	0.8495283
1237386125113	0.013620348	-9.289077	4.8488436	0.6718235
1237386125153	-1.4437568	-9.289077	5.952092	1.3198404
1237386125193	-2.4108016	-8.676162	4.6853995	0.34424686
1237386125232	-0.84446156	-6.9191365	4.6853995	-1.4078093
1237386125273	1.1441092	-6.1563973	5.3936577	-1.542162
1237386125313	1.253072	-5.706926	6.3879433	-1.1495714
1237386125354	0.7627395	-5.271075	7.0553403	-0.96675014
1237386125393	-0.7354988	-4.944186	8.390134	-0.040367126
1237386125433	-1.920469	-4.344891	9.2073555	0.5539322
1237386125472	-1.7025435	-3.7319753	8.934948	0.024910927
1237386125513	-1.0623871	-3.6230125	9.438901	0.3593588
1237386125553	-1.0079057	-3.13268	8.717023	-0.48913765
1237386125593	-2.8330324	-3.1871614	7.8861814	-0.84138775
1237386125632	-3.4323275	-3.840938	8.771504	0.36551666
1237386125672	-3.5821514	-4.235928	8.771504	0.57189465
1237386125713	-3.1054392	-4.0588636	8.322033	-0.040670395
1237386125753	-3.173541	-4.263169	8.253931	0.010342598
1237386125792	-3.3914666	-4.263169	8.036005	-0.09819889
1237386125833	-3.800077	-4.235928	7.940663	-0.037423134
1237386125872	-4.072484	-4.508335	8.158588	0.36550617
1237386125913	-3.759216	-4.69902	8.253931	0.4080391
1237386125953	-3.92266	-4.535576	8.090487	0.2638359
1237386125993	-3.5821514	-4.6172976	7.8317	-0.034916878
1237386126032	-3.5276701	-4.8897047	7.7227373	-0.008979797
1237386126073	-3.336985	-5.243834	7.600154	0.011475563
1237386126113	-2.6832085	-5.3527966	7.4911914	-0.21655178
1237386126153	-2.7240696	-5.325556	7.559293	-0.16688824
1237386126193	-2.7785509	-5.1621118	7.668256	-0.15419483
1237386126233	-2.901134	-4.862464	7.9270425	-0.06508255
1237386126272	-3.0645783	-4.7535014	8.090487	0.06469154
1237386126313	-3.1054392	-4.4538536	8.158588	-0.0064907074
1237386126353	-3.1599207	-4.344891	8.267551	0.053146362
1237386126393	-3.4323275	-4.263169	8.253931	0.09702873
1237386126432	-3.5412905	-4.031623	8.144968	-0.052921295
1237386126473	-3.7455957	-3.7864566	8.104107	-0.10905838
1237386126513	-3.8545585	-3.6774938	8.158588	-0.06272125
1237386126553	-3.759216	-3.8681788	8.308413	0.09911728
1237386126593	-3.6502533	-4.031623	8.430995	0.22629547
1237386126633	-3.3778462	-4.1814466	8.322033	0.1004467
1237386126672	-3.4323275	-4.0588636	8.267551	0.022269249
1237386126713	-3.5412905	-3.9771416	8.253931	0.016067505
1237386126752	-3.6502533	-3.9771416	8.308413	0.10151386
1237386126794	-3.7455957	-3.8954194	8.390134	0.1732359
1237386126832	-3.4731886	-4.235928	8.267551	0.11093712
1237386126873	-3.173541	-4.5900574	8.144968	0.066571236
1237386126913	-2.7921712	-4.862464	7.9270425	-0.09697533
1237386126953	-2.6151068	-5.1076303	7.7772183	-0.14167213
1237386126992	-2.7785509	-4.9986677	7.7772183	-0.15304184
1237386127033	-3.2825038	-4.69902	7.9270425	-0.024338722
1237386127072	-3.8136973	-4.3176503	8.036005	0.080905914
1237386127113	-4.1814466	-3.8954194	8.158588	0.15434074
1237386127152	-4.399372	-3.7319753	8.21307	0.23011398
1237386127193	-4.1269655	-3.8954194	8.322033	0.26620293
1237386127232	-4.344891	-3.7864566	8.322033	0.31617355
1237386127273	-4.671779	-3.8136973	8.090487	0.28422546
1237386127313	-4.780742	-3.8136973	7.981524	0.24842358
1237386127353	-4.9850473	-3.840938	7.6137743	0.07125759
1237386127393	-4.4947147	-4.344891	7.504812	-0.03921795
1237386127432	-4.195067	-4.6445384	7.368608	-0.13883209
1237386127471	-4.031623	-4.971427	7.205164	-0.16904354
1237386127512	-3.9635212	-4.780742	7.4503303	-0.10755634
1237386127551	-4.4947147	-4.5628166	7.4503303	0.018276215
1237386127592	-4.671779	-4.535576	7.43671	0.077762604
1237386127631	-4.780742	-4.263169	7.709117	0.21635246
1237386127672	-5.039529	-4.235928	7.504812	0.17644215
1237386127712	-4.930566	-3.9499009	7.4503303	-0.03835392
1237386127752	-5.053149	-3.759216	7.5456724	0.022042274
1237386127791	-5.1076303	-3.8136973	7.368608	-0.063521385
1237386127832	-4.9850473	-3.7319753	7.3958488	-0.13830376
1237386127871	-4.8760843	-4.004382	7.504812	-0.0018825531
1237386127913	-4.6172976	-4.372132	7.763598	0.22870827
1237386127952	-4.508335	-4.5900574	7.6546354	0.19270706
1237386127993	-4.4947147	-4.671779	7.4503303	0.0693512
1237386128032	-4.7126403	-4.6172976	7.327747	0.053587914
1237386128073	-4.9986677	-4.5900574	7.205164	0.091314316
1237386128113	-4.9986677	-4.426613	7.1506824	-0.02330494
1237386128153	-4.8760843	-4.4538536	7.2187843	-0.02279377
1237386128193	-4.7126403	-4.508335	7.4503303	0.094940186
1237386128233	-4.440233	-4.535576	7.43671	-0.029545784
1237386128272	-4.2904096	-4.4810944	7.5456724	-0.038078308
1237386128313	-4.344891	-4.508335	7.504812	-0.032942772
1237386128353	-4.440233	-4.399372	7.327747	-0.17513847
1237386128393	-4.6036777	-4.263169	7.4911914	-0.03493595
1237386128432	-4.767122	-4.3176503	7.6546354	0.19139957
1237386128473	-4.767122	-4.1269655	7.6137743	0.07903957
1237386128513	-4.5491962	-4.1814466	7.668256	0.04128456
1237386128552	-4.4947147	-4.2904096	7.6137743	0.020843506
1237386128593	-4.6036777	-4.344891	7.4503303	-0.030180931
1237386128633	-4.5491962	-4.4810944	7.43671	-0.0046072006
1237386128672	-4.399372	-4.69902	7.43671	0.02899456
1237386128713	-4.1814466	-4.780742	7.7227373	0.19238281
1237386128752	-3.6911142	-4.6172976	7.995144	0.13649273
1237386128793	-3.3778462	-4.5900574	8.308413	0.2684765
1237386128832	-3.3778462	-4.372132	8.539958	0.36469555
1237386128873	-3.2688835	-4.263169	8.430995	0.19044304
1237386128913	-3.4323275	-4.1542063	8.308413	0.096279144
1237386128953	-3.5276701	-4.004382	8.104107	-0.10324478
1237386128992	-3.4323275	-4.0588636	8.104107	-0.11480808
1237386129033	-2.9964764	-4.263169	8.036005	-0.22902775
1237386129073	-2.192876	-4.69902	7.6546354	-0.56095123
1237386129113	-1.7570249	-5.8839903	7.7772183	0.10261822
1237386129153	-1.8115063	-6.7556925	7.2187843	0.24480629
1237386129193	-1.2803127	-6.7284517	6.769313	-0.1767559
1237386129233	-0.7354988	-7.559293	6.8237944	0.40354252
1237386129274	-1.0079057	-8.240311	5.8976107	0.3766899
1237386129313	-0.95342433	-7.913422	5.7886477	0.044223785
1237386129353	-1.0079057	-9.370799	5.5026207	1.106946
1237386129393	-2.4516625	-9.861132	4.7262607	1.4000492
1237386129433	-2.6151068	-8.512717	4.344891	0.1020937
1237386129473	0.44947147	-8.512717	2.3563201	-0.9624071
1237386129513	-0.5720546	-8.267551	1.7978859	-1.3265533
1237386129553	0.23154591	-7.327747	1.293933	-2.3619375
1237386129593	0.87170225	-8.158588	0.29964766	-1.5961561
1237386129632	-1.4437568	-9.425281	1.7434045	-0.113363266
1237386129673	-0.84446156	-10.18802	2.233737	0.65750027
1237386129713	-1.6480621	-10.96438	1.525479	1.3853483
1237386129753	-2.5606253	-10.405946	1.6344417	1.0336409
1237386129793	-3.4323275	-9.479762	1.3484144	0.36512375
1237386129832	-3.636633	-8.267551	1.293933	-0.6824093
1237386129873	-3.214402	-7.8317	2.6832085	-0.9259119
1237386129913	-2.9964764	-8.022385	4.1269655	-0.30036926
1237386129952	-3.636633	-7.6954966	5.7886477	0.48675632
1237386129993	-5.3119354	-7.559293	6.605869	1.5510378
1237386130032	-5.570722	-5.6252036	6.101916	0.1888113
1237386130073	-8.049625	-5.325556	5.3936577	1.2500019
1237386130113	-8.744264	-5.7750273	3.7455957	1.3218079
1237386130153	-9.180115	-6.428804	2.1383946	1.6028528
1237386130193	-9.234595	-9.561484	1.8659877	3.6165257
1237386130233	-6.2244987	-10.487668	2.3018389	2.604394
1237386130273	-4.7126403	-10.54215	2.9147544	2.1030807
1237386130312	-2.1383946	-9.997335	3.2961242	0.93503857
1237386130352	-1.484618	-8.894087	3.7455957	-0.042513847
1237386130393	-2.083913	-8.839605	3.3506055	-0.12636757
1237386130433	-3.050958	-8.948568	3.4731886	0.26550198
1237386130473	-4.5491962	-8.921328	4.4538536	1.1533718
1237386130513	-5.679685	-7.8861814	4.6172976	0.953002
1237386130553	-5.952092	-6.5922484	4.739881	0.26070404
1237386130593	-5.407278	-6.2108784	4.1269655	-0.59548855
1237386130633	-4.6036777	-6.2926006	3.7864566	-1.1390133
1237386130673	-4.344891	-7.2187843	3.4595683	-0.69854736
1237386130713	-4.0180025	-7.804459	3.2416427	-0.44918442
1237386130752	-3.5821514	-7.641015	3.636633	-0.6174164
1237386130793	-4.0180025	-7.164303	3.6774938	-0.8068981
1237386130832	-4.5491962	-6.5650077	4.004382	-0.87190914
1237386130873	-4.658159	-7.1915436	4.630918	-0.06692982
1237386130913	-4.440233	-7.749978	5.066769	0.46223354
1237386130953	-4.1814466	-8.158588	4.780742	0.53271866
1237386130993	-4.0180025	-8.812365	4.6172976	0.92282104
1237386131033	-4.2904096	-8.294792	4.2904096	0.4704504
1237386131073	-4.6036777	-7.804459	3.5276701	-0.08307648
1237386131113	-4.2904096	-7.8317	4.004382	-0.020015717
1237386131153	-3.8545585	-7.940663	4.6172976	0.15483475
1237386131193	-3.214402	-7.246025	4.1269655	-0.8696985
1237386131233	-4.0180025	-7.3549876	4.344891	-0.36640263
1237386131273	-4.399372	-7.6137743	4.385752	0.019786835
1237386131312	-4.399372	-7.1098213	4.004382	-0.53631496
1237386131353	-4.8216033	-7.5865335	4.1814466	0.107372284
1237386131393	-4.344891	-7.641015	4.1269655	-0.096087456
1237386131433	-4.6036777	-7.4230895	4.0180025	-0.19205475
1237386131472	-4.4947147	-7.641015	4.1814466	-0.0050144196
1237386131513	-4.440233	-7.559293	4.2223077	-0.07595348
1237386131552	-4.2904096	-7.504812	4.2223077	-0.18595886
1237386131593	-3.9635212	-7.6954966	4.235928	-0.16957283
1237386131632	-3.9635212	-7.6954966	4.1269655	-0.21696758
1237386131673	-4.072484	-7.84532	4.2223077	-0.010627747
1237386131713	-4.1814466	-7.8998017	4.385752	0.14956379
1237386131753	-4.2904096	-7.763598	4.235928	0.023108482
1237386131792	-4.2904096	-7.8180795	4.235928	0.066194534
1237386131833	-4.1814466	-7.8180795	4.1814466	-0.0040302277
1237386131872	-4.1814466	-7.709117	4.1269655	-0.1140337
1237386131913	-4.1269655	-7.6273947	4.276789	-0.13711452
1237386131952	-4.072484	-7.572913	4.4538536	-0.12310982
1237386131993	-4.2904096	-7.5456724	4.399372	-0.07529545
1237386132033	-4.235928	-7.4911914	4.5219555	-0.08507061
1237386132073	-4.7126403	-7.681876	4.276789	0.1688757
1237386132112	-4.8760843	-7.518432	4.276789	0.122797966
1237386132152	-4.8760843	-7.4639506	4.2223077	0.05816841
1237386132193	-4.767122	-7.7363577	4.004382	0.12369537
1237386132233	-4.1814466	-7.763598	4.1814466	-0.047426224
1237386132272	-4.344891	-7.8180795	3.9635212	-0.023504257
1237386132312	-4.1814466	-7.8180795	4.0180025	-0.07262707
1237386132352	-4.0180025	-7.872561	3.8545585	-0.16407871
1237386132394	-4.30403	-7.7363577	4.004382	-0.09011841
1237386132433	-4.195067	-7.681876	3.9499009	-0.2039671
1237386132473	-4.140586	-7.2596455	3.9090397	-0.5801935
1237386132512	-4.4129925	-7.2596455	4.2904096	-0.28905773
1237386132553	-4.2495484	-7.7363577	4.276789	0.0015516281
1237386132592	-4.4129925	-7.8998017	4.276789	0.20196056
1237386132633	-4.8352237	-8.512717	4.072484	0.7966919
1237386132672	-6.3879433	-8.894087	3.9090397	1.8205242
1237386132713	-6.496906	-7.84532	3.8954194	1.0989962
1237386132752	-6.238119	-7.286886	4.004382	0.5879593
1237386132793	-5.802268	-6.864655	3.9090397	-0.0050992966
1237386132832	-4.3585114	-6.6467295	3.8545585	-0.97300625
1237386132873	-4.3585114	-7.518432	3.7864566	-0.3271618
1237386132912	-4.4129925	-7.84532	3.7864566	-0.04136467
1237386132952	-4.7262607	-7.6273947	3.840938	-0.046142578
1237386132993	-4.3585114	-7.572913	3.6774938	-0.32669258
1237386133033	-4.140586	-7.749978	3.9090397	-0.18962288
1237386133072	-4.2495484	-7.913422	4.1814466	0.101195335
1237386133113	-3.5957718	-8.335652	4.385752	0.27538872
1237386133152	-3.759216	-8.063246	4.8352237	0.3189125
1237386133193	-4.140586	-7.6273947	4.5628166	-0.0015039444
1237386133232	-4.031623	-7.6273947	4.2223077	-0.20149422
1237386133273	-4.4538536	-7.572913	4.3312707	-0.011461258
1237386133313	-4.6172976	-7.6273947	4.004382	-0.03262043
1237386133353	-4.4538536	-7.6954966	3.9090397	-0.09387112
1237386133392	-4.4538536	-7.641015	3.9635212	-0.114827156
1237386133433	-4.3585114	-7.681876	3.8954194	-0.15356064
1237386133472	-4.2495484	-7.681876	4.004382	-0.15755844
1237386133513	-4.0861044	-7.6954966	4.0180025	-0.2117939
1237386133553	-3.8681788	-7.913422	4.1269655	-0.079527855
1237386133594	-3.759216	-8.117727	4.167826	0.06249237
1237386133632	-3.4323275	-8.281172	4.0588636	0.0337286
1237386133673	-3.173541	-8.403754	4.072484	0.056390762
1237386133713	-3.1190596	-8.294792	3.9635212	-0.098838806
1237386133753	-3.1190596	-8.22669	3.9499009	-0.16254902
1237386133793	-3.4323275	-8.008764	4.113345	-0.17125797
1237386133833	-3.5957718	-7.8998017	4.2223077	-0.1544838
1237386133873	-3.5412905	-8.063246	4.276789	-0.016471863
1237386133913	-3.486809	-8.240311	4.2904096	0.11646271
1237386133952	-3.173541	-8.403754	4.072484	0.056390762
1237386133993	-3.0645783	-8.390134	3.840938	-0.08354378
1237386134032	-3.173541	-8.444615	3.8954194	0.019701958
1237386134072	-3.2280223	-8.335652	3.840938	-0.077516556
1237386134113	-3.4323275	-8.172209	3.8954194	-0.12469959
1237386134153	-3.6502533	-8.131348	3.9635212	-0.052027702
1237386134193	-3.7047346	-8.022385	3.8545585	-0.16604137
1237386134233	-3.759216	-8.008764	3.8954194	-0.13988686
1237386134272	-3.759216	-8.117727	3.9499009	-0.027544022
1237386134313	-3.759216	-8.131348	3.9090397	-0.032648087
1237386134352	-3.759216	-8.131348	3.8545585	-0.054309845
1237386134394	-3.6502533	-8.22669	3.8954194	3.414154E-4
1237386134432	-3.5957718	-8.22669	3.840938	-0.041363716
1237386134473	-3.5412905	-8.253931	3.8545585	-0.032922745
1237386134512	-3.5412905	-8.19945	3.8545585	-0.07888889
1237386134552	-3.5957718	-8.144968	3.8545585	-0.104706764
1237386134593	-3.5957718	-8.19945	3.9090397	-0.037252426
1237386134633	-3.5957718	-8.22669	3.8954194	-0.019806862
1237386134672	-3.5957718	-8.281172	3.9499009	0.04774475
1237386134712	-3.5957718	-8.281172	3.8954194	0.026033401
1237386134752	-3.5957718	-8.22669	3.8954194	-0.019806862
1237386134792	-3.5957718	-8.22669	3.9499009	0.002005577
1237386134832	-3.5412905	-8.172209	3.8954194	-0.08553791
1237386134872	-3.5412905	-8.172209	3.9499009	-0.063578606
1237386134952	-3.486809	-8.172209	3.9499009	-0.08324814
1237386134993	-3.5412905	-8.22669	3.9499009	-0.017835617
1237386135072	-3.5957718	-8.22669	3.9499009	0.002005577
1237386135112	-3.6502533	-8.22669	3.9499009	0.022109032
1237386135272	-3.6502533	-8.172209	3.8954194	-0.045316696
1237386135312	-3.6502533	-8.172209	3.9499009	-0.023447037
1237386135353	-3.5957718	-8.144968	3.8954194	-0.08840084
1237386135512	-3.6502533	-8.144968	3.8954194	-0.068110466
1237386135552	-3.5957718	-8.144968	3.840938	-0.11011028
1237386135592	-3.5957718	-8.19945	3.8954194	-0.04269409
1237386135672	-3.5957718	-8.19945	3.840938	-0.06430149
1237386135712	-3.6502533	-8.19945	3.8954194	-0.022499084
1237386135753	-3.6638734	-8.240311	3.9362805	0.033115387
1237386135832	-3.6638734	-8.240311	3.990762	0.055036545
1237386135872	-3.7728362	-8.185829	4.1542063	0.11804199
1237386135913	-4.0452433	-8.131348	4.3176503	0.24943829
1237386135952	-4.4129925	-8.131348	4.5491962	0.5029812
1237386135993	-4.671779	-8.036005	4.6853995	0.6027622
1237386136032	-4.5628166	-8.036005	4.8488436	0.62924767
1237386136073	-4.2086873	-8.022385	4.8352237	0.4622879
1237386136113	-3.8273177	-7.6954966	4.671779	-0.024291039
1237386136154	-3.4323275	-7.559293	4.2904096	-0.46152306
1237386136192	-3.4323275	-7.327747	3.6911142	-0.9127722
1237386136233	-3.7728362	-7.3005066	3.8954194	-0.71236706
1237386136272	-3.881799	-7.6954966	4.3312707	-0.16046238
1237386136313	-4.0452433	-7.668256	4.903325	0.1537075
1237386136353	-4.099725	-7.7772183	5.4617596	0.54340744
1237386136392	-4.099725	-7.7772183	5.5162406	0.5722599
1237386136433	-4.2086873	-7.4503303	5.284695	0.2506094
1237386136473	-4.263169	-7.137062	5.2165933	0.007885933
1237386136513	-4.3176503	-6.864655	5.5571017	0.024269104
1237386136553	-4.099725	-6.8374147	5.843129	0.07768822
1237386136592	-3.9362805	-6.8374147	6.2789803	0.2765112
1237386136633	-3.9499009	-7.0280995	6.496906	0.54736805
1237386136672	-4.113345	-7.137062	6.3198414	0.57591534
1237386136713	-4.630918	-7.0553403	6.2789803	0.71232414
1237386136752	-5.012288	-7.1098213	5.8976107	0.7030792
1237386136793	-5.298315	-7.1915436	5.829509	0.8598213
1237386136833	-5.5571017	-7.246025	6.26536	1.2676888
1237386136873	-5.339176	-7.0553403	5.4617596	0.5912075
1237386136913	-5.284695	-6.510526	5.570722	0.26051903
1237386136953	-5.243834	-6.428804	6.0474343	0.45974064
1237386136993	-4.69902	-5.597963	6.66035	0.08163738
1237386137035	-4.0452433	-4.3176503	7.6137743	-0.16426182
1237386137072	-5.066769	-4.7535014	10.651112	2.9100351
1237386137113	-4.6445384	-3.568531	10.365085	2.0988588
1237386137153	-4.4810944	-2.7513103	9.425281	0.98620987
1237386137193	-4.5900574	-2.4789033	9.139254	0.7166357
1237386137232	-3.0373375	-0.7082581	6.26536	-2.8079515
1237386137273	-2.4925237	0.27240697	6.3198414	-3.007586
1237386137313	-4.2223077	-1.2122109	5.829509	-2.5073004
1237386137353	-4.862464	-2.8057916	4.671779	-2.5031204
1237386137393	-5.7750273	-5.3800373	3.7319753	-1.0760498
1237386137433	-7.3413672	-8.948568	3.8954194	2.4059181
1237386137472	-6.26536	-9.779409	4.8352237	2.7739296
1237386137513	-5.992953	-10.378705	6.66035	3.9044132
1237386137553	-5.8839903	-10.54215	8.4854765	4.950096
1237386137593	-5.243834	-9.343558	8.308413	3.751727
1237386137632	-5.0259085	-8.948568	7.981524	3.1949406
1237386137673	-5.3936577	-8.921328	7.273266	2.9048424
1237386137713	-5.3936577	-7.7227373	5.570722	1.1370764
1237386137754	-5.8839903	-7.5320525	5.5026207	1.2220392
1237386137792	-6.6875906	-7.3005066	5.5026207	1.5203133
1237386137833	-6.782933	-6.1291566	5.5162406	0.8705988
1237386137872	-5.9793324	-5.0803895	6.2244987	0.20869637
1237386137914	-4.5900574	-3.6774938	6.26536	-1.2132034
1237386137953	-2.547005	-1.3211738	5.829509	-3.3092732
1237386137993	-0.7082581	0.7354988	5.339176	-4.370715
1237386138032	-0.013620348	1.6753027	5.1212506	-4.4183264
1237386138073	-0.24516626	1.9749504	5.1076303	-4.325006
1237386138113	-2.1792557	0.939804	3.9499009	-5.198602
1237386138153	-3.718355	-1.0215261	3.636633	-4.5062
1237386138193	-5.4890003	-3.6502533	3.0237172	-2.554317
1237386138233	-6.9599977	-6.5922484	2.901134	0.2091322
1237386138273	-6.6331096	-8.839605	4.7262607	2.2130966
1237386138313	-6.851035	-10.9371395	6.0474343	4.445689
1237386138353	-6.2108784	-11.264028	7.600154	5.133754
1237386138393	-5.5571017	-10.651112	8.308413	4.800104
1237386138432	-5.6660647	-9.997335	8.036005	4.2157745
1237386138473	-5.6524444	-8.7034025	7.0553403	2.742341
1237386138513	-5.6524444	-7.7772183	5.570722	1.3049746
1237386138553	-6.2108784	-7.477571	5.5571017	1.3902445
1237386138593	-6.6875906	-7.082581	5.271075	1.2690458
1237386138633	-6.619489	-6.347082	5.3936577	0.83264637
1237386138679	-5.9248514	-5.243834	6.3334618	0.32816124
1237386138723	-4.276789	-3.7319753	5.8839903	-1.6310825
1237386138763	-2.3426998	-1.5390993	5.7750273	-3.3873038
1237386138803	-0.980665	0.29964766	5.679685	-4.0351415
1237386138843	-0.87170225	1.0760075	5.4617596	-4.172072
1237386138883	-1.5799603	1.1577295	5.448139	-4.017105
1237386138923	-2.4925237	-0.0	5.1621118	-4.0742793
1237386138963	-3.718355	-1.9477097	4.630918	-3.556439
1237386139002	-5.1212506	-4.69902	4.072484	-1.7510233
1237386139043	-6.6875906	-7.913422	4.385752	1.444169
1237386139083	-7.43671	-10.051817	5.829509	3.9892492
1237386139123	-7.1234417	-10.991621	6.932757	5.013008
1237386139162	-6.3198414	-10.54215	7.872561	4.7897377
1237386139203	-5.243834	-9.00305	8.090487	3.3845844
1237386139242	-5.243834	-8.131348	7.5456724	2.4633856
1237386139283	-5.9793324	-7.6137743	6.8374147	2.0454473
1237386139323	-6.5650077	-7.3822284	6.006573	1.7551632
1237386139363	-6.9599977	-7.3549876	5.8839903	1.904829
1237386139402	-6.905516	-6.6467295	5.5571017	1.2724533
1237386139443	-6.510526	-5.6252036	5.8976107	0.6246338
1237386139483	-5.5434813	-4.5900574	6.4560447	-0.13817978
1237386139523	-3.840938	-2.8602731	6.2108784	-1.9638844
1237386139563	-1.7978859	-0.54481393	5.938472	-3.578114
1237386139603	-0.81722087	0.8580819	5.3936577	-4.2843595
1237386139643	-1.0351465	1.7842655	4.903325	-4.487089
1237386139682	-2.002191	1.4028958	4.467474	-4.713988
1237386139723	-3.6093922	-0.9125633	4.0180025	-4.328984
1237386139763	-4.971427	-4.0588636	3.7864566	-2.3550253
1237386139803	-6.2108784	-7.082581	4.671779	0.70826626
1237386139842	-7.5456724	-8.676162	6.1563973	3.2361326
1237386139883	-7.9270425	-9.670447	7.600154	4.8261185
1237386139923	-7.0689607	-9.125633	8.253931	4.3840075
1237386139963	-6.101916	-8.131348	8.308413	3.3227787
1237386140003	-5.3527966	-7.6954966	7.600154	2.261301
1237386140042	-5.243834	-7.3549876	7.1506824	1.7140226
1237386140083	-5.706926	-7.2187843	6.5650077	1.4972954
1237386140123	-6.8374147	-7.000859	6.2789803	1.8203812
1237386140165	-7.6546354	-7.0280995	6.1563973	2.2717953
1237386140203	-7.5456724	-6.428804	5.829509	1.6933441
1237386140243	-7.1098213	-5.243834	6.2244987	1.0003729
1237386140283	-5.2302136	-3.9771416	5.952092	-0.9409752
1237386140323	-2.9283748	-1.8115063	5.611583	-3.2228212
1237386140366	-1.4709976	0.21792556	5.448139	-4.159213
1237386140406	-0.92618364	1.56634	5.1212506	-4.3717217
1237386140443	-1.4709976	2.0566726	4.7943625	-4.3863506
1237386140484	-2.7649305	0.54481393	4.508335	-4.490002
1237386140523	-4.5900574	-2.6968288	4.167826	-3.0455637
1237386140566	-6.1291566	-5.5843425	4.2495484	-0.48945618
1237386140606	-7.000859	-7.3413672	5.407278	1.6888428
1237386140643	-7.4911914	-8.825985	6.851035	3.6452131
1237386140683	-7.1098213	-8.771504	7.954283	4.00492
1237386140725	-6.67397	-8.22669	8.730643	3.9208565
1237386140762	-6.619489	-8.172209	8.22669	3.5455427
1237386140806	-6.469665	-7.6954966	7.600154	2.7965078
1237386140842	-6.374323	-7.3005066	7.43671	2.4094887
1237386140884	-6.306221	-7.2187843	6.2244987	1.6224203
1237386140923	-6.8374147	-7.164303	6.1700177	1.861537
1237386140963	-6.851035	-6.1563973	5.8839903	1.1230917
1237386141003	-6.101916	-4.4538536	5.7205462	-0.33063698
1237386141044	-8.60806	-4.263169	6.891896	2.015851
1237386141083	-7.273266	-2.8875136	6.3879433	0.2950306
1237386141123	-5.5434813	-1.293933	6.2244987	-1.3716736
1237386141163	-3.0237172	-0.08172209	5.7886477	-3.275342
1237386141203	-0.17706452	1.6208214	5.012288	-4.5358396
1237386141246	-0.980665	0.9670447	4.5219555	-5.0796046
1237386141286	-2.7513103	-2.2201166	4.576437	-4.02371
1237386141323	-6.197258	-5.134871	4.739881	-0.46644783
1237386141363	-6.3607025	-6.891896	3.9635212	0.37501335
1237386141404	-6.9463773	-8.975809	5.3936577	2.7595282
1237386141455	-7.1506824	-8.662541	6.074675	2.963376
1237386141494	-7.096201	-8.60806	6.742072	3.2283144
1237386141531	-7.368608	-8.757884	8.049625	4.1859694
1237386141572	-7.164303	-7.668256	7.8317	3.2878103
1237386141612	-6.5241466	-7.5320525	7.43671	2.6272125
1237386141652	-6.4151835	-7.137062	6.4424243	1.75177
1237386141692	-7.4230895	-6.619489	6.0610547	1.8405075
1237386141731	-7.273266	-6.238119	5.570722	1.277008
1237386141773	-6.7965536	-4.9986677	5.5571017	0.29588413
1237386141813	-5.3527966	-3.3506055	5.938472	-1.1380606
1237386141853	-2.6423476	-1.0760075	5.4617596	-3.6446204
1237386141893	-1.0351465	1.0215261	5.1212506	-4.482906
1237386141932	-0.7627395	2.0566726	4.9578066	-4.3852553
1237386141973	-1.6753027	1.8387469	4.630918	-4.5499372
1237386142013	-3.0781987	-0.40861043	4.235928	-4.554474
1237386142053	-5.012288	-3.8136973	3.800077	-2.4508424
1237386142093	-6.469665	-6.6467295	4.385752	0.45348644
1237386142133	-7.43671	-8.676162	5.5026207	2.876381
1237386142176	-7.9270425	-9.901993	6.9463773	4.65501
1237386142215	-7.273266	-9.01667	8.158588	4.362446
1237386142253	-7.177923	-8.076866	8.19945	3.757616
1237386142293	-7.1234417	-7.246025	7.6546354	2.9150534
1237386142336	-7.1506824	-6.578628	7.504812	2.4706783
1237386142375	-7.1506824	-6.2926006	6.510526	1.7309418
1237386142417	-7.600154	-6.496906	6.006573	1.8574419
1237386142453	-8.144968	-6.3198414	5.8976107	2.0703325
1237386142496	-7.477571	-5.5162406	4.903325	0.69980335
1237386142533	-5.87037	-4.426613	5.570722	-0.5822754
1237386142573	-3.4595683	-2.4108016	5.611583	-2.7873592
1237386142616	-1.0487667	-0.43585113	5.1621118	-4.5210776
1237386142657	-0.013620348	1.3484144	5.339176	-4.299817
1237386142693	-0.6537767	1.8932283	5.066769	-4.358358
1237386142733	-1.9068487	0.4903325	4.671779	-4.7369347
1237386142775	-3.6774938	-2.192876	4.5628166	-3.5494971
1237386142817	-5.761407	-5.0803895	4.8488436	-0.7228489
1237386142853	-6.782933	-7.7227373	6.0610547	2.1258783
1237386142896	-7.4911914	-8.880466	7.3958488	3.9657574
1237386142933	-7.981524	-8.60806	7.7363577	4.2523203
1237386142975	-7.6954966	-7.995144	8.104107	3.9345121
1237386143012	-7.8589406	-7.273266	7.327747	3.1686811
1237386143056	-7.600154	-7.04172	6.782933	2.5770626
1237386143096	-6.6331096	-6.932757	6.5513873	1.8115225
1237386143136	-6.3607025	-6.6331096	5.911231	1.1203499
1237386143175	-7.5456724	-6.578628	5.679685	1.7030993
1237386143213	-8.036005	-6.0474343	5.611583	1.7102375
1237386143253	-8.036005	-5.3800373	5.938472	1.5418139
1237386143296	-6.6875906	-4.372132	5.7886477	0.059851646
1237386143336	-3.4595683	-1.8387469	5.4617596	-3.085012
1237386143373	-1.2122109	0.38136974	5.1076303	-4.543307
1237386143412	-0.19068487	1.7570249	4.9986677	-4.504747
1237386143453	-0.7763598	2.0294318	4.780742	-4.555286
1237386143493	-2.4516625	0.27240697	4.4538536	-4.7153177
1237386143533	-4.426613	-2.6968288	4.113345	-3.1894455
1237386143572	-6.2108784	-5.4890003	4.167826	-0.5289936
1237386143613	-6.6331096	-7.4230895	5.3800373	1.5090551
1237386143652	-7.0689607	-8.894087	6.66035	3.362831
1237386143693	-7.286886	-8.948568	7.9270425	4.1938353
1237386143733	-7.1234417	-8.294792	8.430995	4.000184
1237386143772	-7.3822284	-8.022385	7.9270425	3.67274
1237386143813	-7.3822284	-7.5320525	8.090487	3.4856443
1237386143854	-6.7284517	-7.164303	6.782933	2.1351871
1237386143893	-6.5650077	-7.000859	6.67397	1.8832273
1237386143933	-7.600154	-6.864655	6.3198414	2.227727
1237386143972	-7.600154	-5.938472	5.5026207	1.2977018
1237386144014	-6.9463773	-4.2086873	5.952092	0.26273918
1237386144055	-5.175732	-2.4380422	5.679685	-1.7449465
1237386144096	-2.1792557	-0.43585113	5.5026207	-3.872178
1237386144133	-0.35412905	0.9942854	5.3800373	-4.3240585
1237386144175	0.14982383	1.3211738	5.448139	-4.198605
1237386144216	-0.6537767	0.7763598	4.8897047	-4.812717
1237386144255	-2.3290794	-1.1032481	4.5628166	-4.5663195
1237386144293	-4.426613	-4.399372	4.344891	-2.2022133
1237386144336	-6.782933	-7.668256	5.3936577	1.7649479
1237386144373	-7.804459	-9.152874	6.7284517	3.9758291
1237386144416	-7.9270425	-9.711308	7.7363577	4.924226
1237386144463	-7.1098213	-8.771504	8.948568	4.6004915
1237386144502	-6.197258	-7.286886	8.008764	2.6691275
1237386144543	-6.3607025	-7.0689607	7.681876	2.4179144
1237386144583	-6.6875906	-7.096201	7.6137743	2.5646677
1237386144625	-6.742072	-6.769313	6.5513873	1.7778139
1237386144663	-7.477571	-6.891896	6.510526	2.2680855
1237386144702	-7.804459	-6.5650077	6.1700177	2.112999
1237386144743	-7.2324047	-5.271075	5.7750273	0.84430504
1237386144782	-6.101916	-3.7319753	5.938472	-0.510067
1237386144823	-3.1871614	-1.3484144	5.6252036	-3.2021718
1237386144866	-1.1985906	0.5720546	5.2302136	-4.4104476
1237386144905	-0.44947147	1.6753027	5.339176	-4.1927867
1237386144946	-0.92618364	1.8932283	5.066769	-4.319002
1237386144985	-2.5333846	0.24516626	4.7943625	-4.3785696
1237386145026	-3.9362805	-2.669588	4.399372	-3.3278017
1237386145066	-5.761407	-5.679685	4.8488436	-0.37458134
1237386145106	-7.164303	-7.504812	6.2244987	2.2926817
1237386145145	-7.6954966	-8.5944395	6.7284517	3.5483904
1237386145185	-7.804459	-8.539958	7.327747	3.887741
1237386145223	-7.327747	-8.008764	7.8998017	3.6188126
1237386145263	-6.742072	-7.954283	7.014479	2.760333
1237386145306	-6.6331096	-7.804459	7.4911914	2.8829384
1237386145345	-6.0474343	-7.477571	7.4911914	2.3836517
1237386145383	-5.829509	-6.7965536	6.5650077	1.2963066
1237386145429	-7.2187843	-6.905516	6.5650077	2.147275
1237386145467	-7.4911914	-6.3198414	6.0610547	1.7170095
1237386145503	-7.2187843	-5.175732	5.7750273	0.7881594
1237386145543	-5.611583	-3.718355	5.6252036	-1.0340252
1237386145586	-2.547005	-1.4028958	5.3527966	-3.7150345
1237386145625	-0.5992953	0.626536	5.1893525	-4.5453687
1237386145662	0.040861044	1.9477097	5.3527966	-4.110364
1237386145702	-0.81722087	1.9477097	5.3527966	-4.0521865
1237386145743	-2.4380422	0.5720546	5.0259085	-4.1913986
1237386145783	-4.426613	-2.1247742	4.630918	-3.057208
1237386145823	-5.938472	-5.039529	4.7943625	-0.66071033
1237386145863	-6.742072	-7.205164	6.0610547	1.773778
1237386145902	-7.3822284	-8.526338	7.000859	3.4676762
1237386145942	-7.2187843	-8.580819	7.8861814	3.9022217
1237386145983	-7.014479	-8.308413	8.662541	4.0955896
1237386146025	-6.810174	-7.981524	7.7772183	3.2535305
1237386146066	-6.428804	-7.477571	7.6137743	2.6518068
1237386146103	-6.2517395	-7.3413672	7.6273947	2.4879456
1237386146143	-6.2517395	-6.905516	6.074675	1.3141441
1237386146186	-7.286886	-6.973618	6.26536	2.067051
1237386146226	-7.5456724	-6.537767	5.6660647	1.6730652
1237386146263	-7.014479	-5.47538	5.3527966	0.5777197
1237386146303	-6.142777	-4.263169	6.183638	-0.10377979
1237386146343	-3.9362805	-2.2609777	5.7750273	-2.4610891
1237386146383	-1.8932283	0.16344418	5.6660647	-3.830421
1237386146423	-1.1985906	1.8932283	5.4617596	-3.903113
1237386146463	-1.4165162	2.3971813	5.298315	-3.82124
1237386146502	-2.1656353	1.8932283	5.0803895	-3.9684443
1237386146546	-3.4595683	-0.6810174	4.971427	-3.7117767
1237386146583	-4.9169455	-3.840938	4.6172976	-2.0446534
1237386146623	-5.8839903	-6.101916	4.8352237	-0.04785347
1237386146666	-6.6875906	-8.036005	6.0610547	2.2779531
1237386146705	-7.164303	-9.01667	7.273266	3.8142147
1237386146745	-6.851035	-8.689782	8.21307	3.973898
1237386146782	-6.851035	-8.253931	8.717023	4.0154533
1237386146823	-6.578628	-7.559293	8.063246	3.0555887
1237386146862	-6.578628	-6.9599977	7.681876	2.4706106
1237386146903	-6.5241466	-6.8782754	7.5456724	2.3099642
1237386146943	-6.3607025	-6.932757	6.5513873	1.6581793
1237386146983	-7.709117	-6.851035	6.183638	2.2185135
1237386147025	-7.600154	-6.0201936	5.570722	1.3753891
1237386147066	-6.7965536	-4.508335	5.3936577	-0.028625488
1237386147102	-5.339176	-2.6968288	5.7750273	-1.4921665
1237386147143	-2.2745981	-0.46309182	5.4617596	-3.8720846
1237386147182	-0.7627395	1.1304889	5.6252036	-4.018499
1237386147223	-0.54481393	1.6753027	5.679685	-3.8600307
1237386147262	-1.1441092	1.5118586	5.407278	-4.07661
1237386147306	-2.6559677	0.19068487	5.134871	-4.022411
1237386147346	-4.3176503	-2.2882185	4.6853995	-3.0367894
1237386147383	-5.6660647	-5.175732	4.8352237	-0.7362652
1237386147422	-6.6875906	-7.6954966	5.8976107	1.9715652
1237386147463	-6.9599977	-9.41166	7.43671	4.0614986
1237386147502	-6.6875906	-9.466142	8.771504	4.7285137
1237386147542	-6.2517395	-8.689782	8.989429	4.1721334
1237386147582	-5.829509	-7.641015	8.717023	3.1685095
1237386147623	-5.829509	-7.1234417	8.444615	2.6848717
1237386147662	-5.611583	-7.177923	7.681876	2.1107187
1237386147703	-5.829509	-7.096201	7.5456724	2.0793257
1237386147743	-6.6875906	-6.8782754	6.891896	2.0057487
1237386147783	-6.851035	-5.7477865	6.0201936	0.9737234
1237386147823	-6.469665	-4.2086873	5.911231	-0.084908485
1237386147863	-5.339176	-2.4244218	5.7750273	-1.5764885
1237386147902	-2.7513103	-0.05448139	5.5571017	-3.605517
1237386147943	-0.87170225	1.4573772	5.3527966	-4.190936
1237386147983	-0.17706452	1.8932283	5.298315	-4.177458
1237386148023	-0.54481393	1.293933	5.0259085	-4.588332
1237386148062	-2.0566726	-0.9670447	4.971427	-4.340375
1237386148103	-3.9362805	-4.1814466	4.9578066	-2.2199087
1237386148143	-5.829509	-6.66035	5.3936577	0.5584345
1237386148183	-7.327747	-7.763598	6.115536	2.4965649
1237386148222	-7.8180795	-8.689782	6.5513873	3.5931768
1237386148262	-7.43671	-8.526338	7.7772183	3.92245
1237386148305	-6.7965536	-8.036005	8.049625	3.4435196
1237386148346	-6.033814	-8.008764	7.3958488	2.6531162
1237386148382	-6.142777	-7.6137743	7.8998017	2.7675352
1237386148423	-6.469665	-7.096201	6.8374147	1.9816017
1237386148464	-6.9599977	-7.096201	6.4424243	2.0382833
1237386148505	-7.6546354	-6.9599977	6.4560447	2.3882465
1237386148546	-7.3822284	-6.2926006	5.8567495	1.5245295
1237386148586	-6.4151835	-5.012288	6.006573	0.3104906
1237386148622	-4.6445384	-2.969236	5.611583	-1.9403954
1237386148663	-2.2745981	-0.5720546	5.407278	-3.912611
1237386148702	-0.980665	1.2394516	5.1893525	-4.381954
1237386148742	-0.81722087	1.9477097	5.134871	-4.2543244
1237386148783	-1.6344417	1.6208214	5.134871	-4.179452
1237386148823	-2.9147544	-0.24516626	4.8488436	-4.143861
1237386148863	-4.3176503	-2.9964764	4.630918	-2.8019109
1237386148903	-5.6660647	-6.1563973	4.8352237	-0.14306355
1237386148943	-6.6331096	-8.417375	5.8976107	2.4257717
1237386148983	-7.327747	-9.847511	7.164303	4.405901
1237386149023	-7.273266	-9.738548	7.940663	4.7120905
1237386149063	-6.7965536	-8.635301	8.430995	4.044098
1237386149102	-6.469665	-7.763598	7.8317	2.978714
1237386149143	-6.578628	-7.1234417	7.286886	2.3226728
1237386149183	-6.851035	-7.014479	7.014479	2.2491589
1237386149223	-6.905516	-7.04172	5.952092	1.7128716
1237386149263	-7.43671	-6.8782754	6.0610547	1.9980822
1237386149303	-7.0689607	-6.1291566	5.7886477	1.195404
1237386149343	-5.9793324	-4.862464	5.7341666	-0.20057678
1237386149383	-5.012288	-3.405087	6.2789803	-1.0806398
1237386149425	-3.0237172	-1.3211738	5.7205462	-3.2026353
1237386149466	-1.7842655	0.5720546	5.3527966	-4.135382
1237386149502	-1.6344417	1.6753027	5.134871	-4.1635184
1237386149543	-2.0566726	2.083913	4.9578066	-4.0488343
1237386149583	-3.2961242	0.5992953	4.7262607	-4.013453
1237386149623	-4.807983	-2.1247742	4.467474	-2.908122
1237386149663	-6.2517395	-5.2574544	4.4129925	-0.52227783
1237386149703	-7.014479	-7.84532	5.134871	1.9031267
1237386149743	-7.164303	-9.438901	6.5650077	3.740283
1237386149782	-7.0689607	-9.547864	7.504812	4.245187
1237386149823	-6.578628	-8.825985	8.281172	3.9684782
1237386149863	-6.4151835	-8.22669	8.172209	3.445444
1237386149903	-6.5241466	-7.4503303	7.286886	2.4884958
1237386149943	-6.5241466	-7.096201	7.000859	2.1068964
1237386149983	-6.6331096	-6.8782754	6.006573	1.4799681
1237386150023	-7.327747	-6.742072	5.679685	1.6567802
1237386150063	-7.4911914	-6.183638	5.8567495	1.5360498
1237386150103	-6.851035	-5.284695	5.843129	0.63398457
1237386150143	-5.8839903	-4.072484	6.3879433	-0.21434689
1237386150183	-3.8273177	-2.0566726	6.238119	-2.2045193
1237386150222	-2.1656353	-0.13620348	5.6252036	-3.7774343
1237386150263	-1.4165162	1.1577295	5.5026207	-4.007884
1237386150303	-1.3075534	1.7025435	5.284695	-4.1025853
1237386150343	-2.1656353	1.1304889	4.7943625	-4.425768
1237386150383	-3.4595683	-1.0760075	4.30403	-4.1807213
1237386150423	-5.1212506	-4.399372	3.9499009	-1.9846687
1237386150463	-6.578628	-7.04172	4.9578066	1.030509
1237386150503	-7.43671	-9.01667	6.2789803	3.4610023
1237386150543	-7.4911914	-9.738548	7.4911914	4.583459
1237386150583	-6.905516	-8.853226	8.21307	4.1045074
1237386150623	-6.306221	-8.090487	7.8861814	3.1322937
1237386150663	-6.0882955	-7.477571	7.327747	2.304389
1237386150703	-6.578628	-7.3141265	7.164303	2.3630676
1237386150743	-6.469665	-7.0689607	6.347082	1.6873579
1237386150782	-6.851035	-7.0689607	6.183638	1.8185062
1237386150823	-7.43671	-6.5513873	6.006573	1.782321
1237386150863	-6.7965536	-5.611583	5.6660647	0.67129326
1237386150903	-5.938472	-4.2086873	6.347082	-0.14932442
1237386150943	-4.426613	-2.2882185	6.074675	-1.9496455
1237386150983	-2.0566726	-0.27240697	5.6660647	-3.7727132
1237386151023	-0.980665	1.3756552	5.5026207	-4.050526
1237386151062	-0.980665	2.0294318	5.066769	-4.2611613
1237386151103	-1.525479	1.7570249	4.671779	-4.5874796
1237386151143	-3.0237172	-0.40861043	4.3585114	-4.4862695
1237386151182	-5.012288	-4.1542063	4.30403	-2.0024757
1237386151223	-7.2187843	-6.932757	5.5026207	1.6149435
1237386151263	-7.981524	-8.689782	6.3879433	3.610609
1237386151303	-7.763598	-9.520623	7.1098213	4.3871965
1237386151343	-7.273266	-8.471856	7.995144	3.926342
1237386151383	-6.142777	-7.981524	7.7227373	2.885044
1237386151422	-6.197258	-7.9270425	7.327747	2.6408348
1237386151463	-6.5241466	-7.5865335	7.6137743	2.766716
1237386151503	-6.0882955	-7.205164	6.496906	1.6472359
1237386151543	-6.851035	-7.014479	6.619489	2.0237026
1237386151583	-7.6546354	-6.2926006	6.183638	1.8735743
1237386151623	-7.164303	-5.6660647	5.6660647	0.94210815
1237386151662	-5.938472	-4.2904096	6.4424243	-0.05073452
1237386151704	-3.881799	-2.3971813	5.7341666	-2.478928
1237386151743	-1.3075534	-0.40861043	5.7886477	-3.8581123
1237386151783	-0.6537767	1.3211738	5.843129	-3.7804503
1237386151823	-1.0896279	1.9749504	5.339176	-4.010572
1237386151863	-1.8387469	1.7842655	4.7943625	-4.3706126
1237386151903	-3.2961242	-0.40861043	4.576437	-4.151991
1237386151944	-4.7535014	-3.6911142	4.344891	-2.3838353
1237386151983	-6.3607025	-6.5513873	5.012288	0.6097908
1237386152022	-7.327747	-8.962189	6.2789803	3.363099
1237386152063	-7.43671	-10.010956	7.4911914	4.7412653
1237386152103	-6.905516	-9.302697	8.322033	4.4580812
1237386152143	-6.197258	-8.471856	8.322033	3.5886698
1237386152183	-5.829509	-7.477571	7.7227373	2.4219189
1237386152222	-6.142777	-7.04172	7.4911914	2.1698885
1237386152263	-6.306221	-6.7965536	6.851035	1.7215004
1237386152303	-6.578628	-6.7965536	6.7965536	1.8408661
1237386152344	-7.273266	-6.5513873	6.5513873	1.9722195
1237386152383	-6.905516	-5.7205462	6.2789803	1.1403313
1237386152423	-5.829509	-4.3176503	6.4560447	-0.09553337
1237386152463	-4.1542063	-2.5606253	6.183638	-1.9293656
1237386152503	-1.8387469	-0.5992953	5.952092	-3.548252
1237386152543	-0.7082581	1.1032481	5.611583	-4.0439553
1237386152583	-0.7627395	1.7842655	5.4617596	-4.010428
1237386152623	-1.6753027	1.56634	4.971427	-4.3316936
1237386152663	-3.0781987	-0.27240697	4.7262607	-4.159788
1237386152702	-4.69902	-3.0781987	4.4538536	-2.6377654
1237386152743	-6.2517395	-5.965712	4.6853995	0.023249626
1237386152782	-7.1098213	-8.281172	6.0201936	2.658104
1237386152823	-7.3822284	-9.656827	7.286886	4.3655167
1237386152862	-6.9599977	-9.384419	7.954283	4.327688
1237386152903	-6.3607025	-8.60806	8.390134	3.7930403
1237386152943	-5.9793324	-7.7908387	7.7363577	2.695382
1237386152983	-6.0882955	-7.205164	7.43671	2.2052765
1237386153022	-6.3607025	-7.04172	7.164303	2.0833282
1237386153064	-6.306221	-6.851035	5.8567495	1.1936512
1237386153102	-7.327747	-6.742072	5.7341666	1.6838713
1237386153143	-7.2187843	-6.101916	5.611583	1.1858063
1237386153183	-6.306221	-4.8352237	5.5571017	-0.10978508
1237386153223	-5.012288	-3.2688835	6.510526	-0.9638233
1237386153262	-2.6014864	-1.1304889	6.347082	-2.854587
1237386153303	-1.0896279	0.8308412	5.952092	-3.6988692
1237386153343	-0.6537767	1.8115063	5.7205462	-3.7706227
1237386153383	-1.1985906	2.0566726	5.243834	-4.0478034
1237386153423	-2.4925237	0.9125633	4.739881	-4.3741627
1237386153463	-4.3176503	-1.7570249	4.344891	-3.4342628
1237386153503	-6.0882955	-5.066769	4.399372	-0.7460785
1237386153543	-7.327747	-7.3413672	5.3527966	1.8657093
1237386153582	-7.763598	-9.0983925	6.742072	3.923235
1237386153625	-7.2187843	-9.384419	7.84532	4.3964214
1237386153663	-6.4151835	-8.499097	8.512717	3.8262358
1237386153703	-6.0882955	-8.008764	8.063246	3.0861216
1237386153743	-5.8839903	-7.286886	7.4503303	2.1611176
1237386153783	-6.033814	-7.1506824	7.668256	2.2905111
1237386153823	-5.938472	-6.9872384	7.2187843	1.8637304
1237386153863	-5.8839903	-7.014479	6.7965536	1.5958672
1237386153902	-6.6331096	-6.578628	6.619489	1.6429844
1237386153943	-6.4151835	-5.448139	6.0610547	0.56509876
1237386153983	-5.9793324	-3.9635212	6.115536	-0.38000202
1237386154023	-4.9578066	-2.233737	6.183638	-1.5721617
1237386154063	-2.6559677	-0.24516626	5.8567495	-3.3711405
1237386154103	-1.525479	1.1032481	5.8976107	-3.6158462
1237386154143	-1.0896279	1.6480621	5.7205462	-3.7545395
1237386154183	-1.4165162	1.4028958	5.407278	-4.043553
1237386154223	-2.383561	-0.24516626	5.134871	-4.1402254
1237386154263	-3.6230125	-2.6968288	4.8352237	-3.1901183
1237386154302	-5.1212506	-6.1563973	4.9578066	-0.3881426
1237386154343	-6.306221	-8.335652	5.6252036	2.0632458
1237386154383	-6.905516	-9.656827	6.9599977	3.9549637
1237386154423	-6.9599977	-10.256122	7.84532	4.862319
1237386154463	-6.5241466	-9.166494	8.444615	4.2610655
1237386154503	-5.7750273	-8.22669	8.063246	3.0792065
1237386154543	-5.7205462	-7.7227373	7.559293	2.4207058
1237386154583	-5.6660647	-6.9872384	7.6137743	1.9787369
1237386154623	-5.7750273	-6.7148314	6.66035	1.2748728
1237386154663	-6.742072	-6.851035	7.1234417	2.157281
1237386154703	-6.4151835	-6.2926006	7.014479	1.5931005
1237386154743	-5.284695	-4.9578066	6.5513873	-0.03789711
1237386154782	-3.6774938	-3.1871614	7.2187843	-1.1007433
1237386154823	-1.6344417	-1.1304889	6.2926006	-3.2076936
1237386154863	-0.54481393	0.51757324	5.965712	-3.793795
1237386154903	-0.3949901	1.3211738	5.8976107	-3.7499738
1237386154943	-1.0351465	1.5390993	5.5026207	-3.9998274
1237386154983	-1.8932283	0.8580819	5.298315	-4.115186
1237386155023	-3.13268	-1.4028958	5.0803895	-3.6754055
1237386155063	-4.9578066	-4.7262607	4.8352237	-1.4223328
1237386155103	-6.6331096	-7.477571	5.175732	1.4494772
1237386155143	-7.3822284	-9.520623	6.3879433	3.8295288
1237386155182	-7.2187843	-10.337844	7.43671	4.8318787
1237386155223	-6.3607025	-9.684067	8.430995	4.5223885
1237386155262	-5.5571017	-9.01667	8.499097	3.7733488
1237386155303	-5.284695	-8.253931	7.7772183	2.7049646
1237386155343	-5.5571017	-7.3141265	7.2187843	1.8761864
1237386155384	-6.2517395	-7.0689607	6.238119	1.5056696
1237386155423	-6.742072	-6.742072	6.238119	1.5874357
1237386155464	-6.7965536	-6.26536	6.496906	1.4919186
1237386155503	-6.3607025	-5.5026207	6.66035	0.9217062
1237386155543	-5.1212506	-4.0452433	7.0689607	-0.18576622
1237386155583	-3.13268	-2.2882185	6.67397	-2.0870967
1237386155623	-1.6344417	-0.5992953	6.2244987	-3.3432965
1237386155663	-0.81722087	0.7218784	5.7205462	-3.9831114
1237386155703	-0.54481393	1.6753027	5.407278	-4.119637
1237386155743	-1.525479	1.6753027	5.134871	-4.1941085
1237386155783	-2.9147544	0.05448139	4.9578066	-4.0552497
1237386155822	-4.69902	-2.9147544	4.7262607	-2.5324411
1237386155863	-6.4151835	-6.074675	5.0259085	0.35779858
1237386155902	-7.2187843	-8.499097	5.965712	2.839899
1237386155943	-7.273266	-10.092678	7.1234417	4.5288296
1237386155982	-6.578628	-9.929234	8.008764	4.54634
1237386156022	-5.7205462	-8.934948	8.22669	3.6185646
1237386156062	-5.829509	-8.008764	7.7908387	2.7957563
1237386156103	-6.033814	-7.177923	7.681876	2.31526
1237386156143	-6.2517395	-6.742072	7.1234417	1.824481
1237386156183	-6.578628	-6.66035	6.891896	1.8181868
1237386156222	-6.905516	-6.7148314	6.891896	2.037055
1237386156263	-6.905516	-5.965712	6.347082	1.309164
1237386156302	-6.2517395	-4.5900574	6.4560447	0.28460312
1237386156343	-5.012288	-3.0237172	6.4424243	-1.1020126
1237386156383	-3.0237172	-1.2122109	6.1700177	-2.8294415
1237386156423	-1.6344417	0.46309182	5.7341666	-3.8261385
1237386156463	-1.0896279	1.3484144	5.407278	-4.128256
1237386156503	-1.4709976	1.3756552	5.175732	-4.252871
1237386156543	-2.6014864	0.05448139	4.8352237	-4.3157406
1237386156583	-4.0452433	-2.6151068	4.4129925	-3.2738652
1237386156623	-5.829509	-5.529861	4.7943625	-0.4499178
1237386156663	-7.164303	-7.641015	5.7205462	2.128047
1237386156702	-7.5456724	-9.125633	6.782933	3.8396873
1237386156743	-7.273266	-9.125633	7.6137743	4.127019
1237386156782	-6.578628	-8.471856	7.7772183	3.4423428
1237386156823	-6.142777	-8.19945	7.668256	2.990491
1237386156862	-6.3607025	-7.6954966	7.273266	2.545662
1237386156903	-6.3607025	-7.286886	6.9599977	2.1096754
1237386156942	-6.3607025	-7.1234417	6.5650077	1.7821932
1237386156983	-7.014479	-7.04172	6.1700177	1.8919764
1237386157022	-7.273266	-6.3879433	6.0610547	1.6144972
1237386157063	-7.2187843	-5.366417	6.0201936	1.0170279
1237386157103	-6.306221	-3.8273177	6.238119	-0.14585781
1237386157143	-4.1542063	-1.8115063	6.006573	-2.2821631
1237386157182	-2.2201166	0.05448139	5.611583	-3.7716064
1237386157223	-1.1985906	1.4028958	5.407278	-4.0932107
1237386157262	-1.253072	1.8387469	5.134871	-4.2103944
1237386157303	-2.1111538	1.2666923	5.066769	-4.173389
1237386157343	-3.2961242	-0.6537767	4.671779	-4.05188
1237386157384	-4.862464	-3.8273177	4.3585114	-2.237731
1237386157423	-6.3607025	-6.6875906	5.1893525	0.7816353
1237386157463	-7.164303	-8.989429	6.510526	3.4041042
1237386157502	-7.327747	-9.983715	7.7363577	4.7954617
1237386157542	-6.742072	-9.043911	8.117727	4.0910244
1237386157583	-6.3607025	-8.172209	8.008764	3.2847147
1237386157623	-6.4151835	-7.3958488	7.286886	2.397934
1237386157662	-6.7965536	-7.0689607	6.851035	2.1557922
1237386157703	-6.905516	-7.1506824	6.5513873	2.098773
1237386157742	-7.0689607	-7.1506824	6.3879433	2.105876
1237386157783	-7.600154	-6.4151835	6.183638	1.9046392
1237386157823	-7.014479	-5.2574544	5.911231	0.7662592
1237386157863	-6.142777	-3.8545585	6.5513873	-0.033625603
1237386157903	-4.7535014	-2.2064962	6.115536	-1.75282
1237386157944	-2.383561	-0.24516626	5.679685	-3.6422124
1237386157983	-1.3620348	1.1304889	5.6252036	-3.9095273
1237386158023	-1.253072	1.7297841	5.243834	-4.1444826
1237386158063	-1.6344417	1.6208214	4.9169455	-4.3775787
1237386158103	-2.9147544	-0.32688835	4.5628166	-4.38245
1237386158143	-4.426613	-3.0781987	4.2904096	-2.916235
1237386158183	-6.033814	-5.965712	5.134871	0.11118889
1237386158223	-7.273266	-8.172209	6.4560447	2.8963375
1237386158262	-7.3822284	-9.166494	7.3958488	4.093727
1237386158302	-7.014479	-8.825985	7.6273947	3.8050385
1237386158342	-6.4151835	-8.117727	7.6273947	3.0475025
1237386158383	-6.0882955	-7.6137743	6.9599977	2.1715994
1237386158424	-6.3607025	-7.4230895	6.7284517	2.0606518
1237386158463	-6.306221	-7.3141265	6.9463773	2.0894432
1237386158503	-6.742072	-7.0689607	5.965712	1.6395483
1237386158543	-7.9270425	-6.578628	5.298315	1.7773256
1237386158583	-8.036005	-6.0474343	5.284695	1.5545492
1237386158623	-7.273266	-4.7262607	4.8897047	0.15061569
1237386158663	-5.5571017	-2.9964764	5.1893525	-1.6341572
1237386158703	-3.0781987	-1.2394516	5.5162406	-3.3692236
1237386158743	-1.6753027	0.5992953	5.284695	-4.2304688
1237386158782	-1.4165162	1.5935807	5.5026207	-3.9053917
1237386158824	-2.002191	1.7842655	5.0803895	-4.0618496
1237386158862	-2.8602731	0.5720546	4.576437	-4.3796635
1237386158903	-4.3176503	-2.2064962	4.072484	-3.4745212
1237386158943	-5.9793324	-5.5026207	4.235928	-0.64289856
1237386158983	-7.014479	-7.5865335	5.448139	1.8741302
1237386159023	-7.3822284	-9.125633	6.8374147	3.777337
1237386159063	-7.164303	-9.071152	8.21307	4.3731794
1237386159102	-6.7965536	-8.090487	8.3765135	3.6772327
1237386159143	-6.4151835	-7.8180795	7.8317	2.984459
1237386159183	-6.6331096	-7.4230895	7.43671	2.6193333
1237386159223	-6.5241466	-7.286886	7.014479	2.2293844
1237386159263	-6.142777	-7.1234417	6.238119	1.4801235
1237386159303	-7.273266	-7.477571	6.3334618	2.396923
1237386159343	-7.43671	-6.8237944	5.7750273	1.8217525
1237386159385	-7.0689607	-5.5843425	5.3527966	0.6722574
1237386159423	-6.0882955	-4.3176503	6.074675	-0.18318272
1237386159463	-3.8273177	-1.8659877	5.6660647	-2.7190156
1237386159502	-1.8932283	0.32688835	5.3936577	-4.0810313
1237386159543	-1.1441092	1.7297841	5.243834	-4.167596
1237386159583	-1.253072	2.3426998	5.0259085	-4.1217413
1237386159622	-1.8387469	1.4028958	4.576437	-4.678992
1237386159662	-3.5140498	-1.3484144	4.5219555	-3.9232116
1237386159703	-5.5571017	-4.8352237	4.508335	-1.1703396
1237386159743	-6.6331096	-6.9872384	5.284695	1.1818733
1237386159782	-7.1098213	-8.853226	6.3879433	3.2215881
1237386159823	-7.0689607	-9.41166	7.6137743	4.211877
1237386159862	-6.742072	-8.362893	8.322033	3.7819386
1237386159902	-6.851035	-8.090487	8.158588	3.5707645
1237386159942	-6.905516	-7.641015	7.940663	3.1981716
1237386159983	-6.851035	-7.368608	7.5456724	2.7699242
1237386160023	-6.0882955	-7.177923	6.5650077	1.6689434
1237386160062	-6.5241466	-7.504812	6.4560447	2.0494537
1237386160103	-7.4911914	-6.9872384	6.2789803	2.2085505
1237386160143	-7.327747	-5.992953	5.611583	1.1979504
1237386160183	-6.033814	-4.535576	6.074675	-0.117479324
1237386160222	-3.3506055	-2.1792557	5.8567495	-2.7160068
1237386160263	-0.6537767	0.16344418	5.5571017	-4.2088366
1237386160302	0.3677494	1.920469	5.7205462	-3.7611485
1237386160343	-0.2860273	2.3699405	5.5026207	-3.808545
1237386160382	-1.6753027	1.5935807	5.066769	-4.2372437
1237386160423	-3.13268	-0.7218784	4.671779	-4.135644
1237386160463	-4.6445384	-3.8545585	4.1814466	-2.4640446
1237386160503	-6.3607025	-6.7965536	4.7943625	0.6641464
1237386160543	-7.5456724	-8.880466	6.238119	3.411292
1237386160583	-7.872561	-9.711308	7.286886	4.6635065
1237386160622	-7.273266	-8.880466	8.063246	4.2211437
1237386160663	-6.5241466	-7.84532	8.063246	3.198329
1237386160702	-6.0882955	-7.286886	7.3958488	2.2293215
1237386160743	-6.4151835	-7.3141265	7.327747	2.3731241
1237386160782	-6.6875906	-7.3141265	6.66035	2.13406
1237386160823	-6.9599977	-7.3413672	6.4015636	2.1648684
1237386160862	-7.9270425	-6.742072	6.0201936	2.2156734
1237386160903	-7.600154	-5.611583	5.5026207	1.1263752
1237386160943	-6.578628	-4.1269655	6.006573	0.011145592
1237386160983	-4.9578066	-2.2882185	5.8567495	-1.7993221
1237386161022	-2.4380422	-0.29964766	5.7341666	-3.568501
1237386161063	-1.0896279	1.3211738	5.7750273	-3.7830524
1237386161103	-0.92618364	1.8659877	5.5571017	-3.871913
1237386161143	-1.3620348	1.8387469	5.0803895	-4.2347126
1237386161182	-2.4925237	0.13620348	4.5219555	-4.6414485
1237386161223	-3.990762	-2.969236	4.1814466	-3.3084168
1237386161263	-5.8839903	-6.3198414	4.6172976	-0.014757156
1237386161303	-7.9270425	-8.308413	6.0610547	3.178114
1237386161343	-8.676162	-9.41166	6.9463773	4.7572536
1237386161383	-8.185829	-8.744264	7.7227373	4.445038
1237386161422	-7.3822284	-7.641015	8.158588	3.589057
1237386161463	-6.306221	-7.3141265	7.164303	2.2179956
1237386161502	-6.4151835	-7.205164	7.164303	2.2098475
1237386161544	-7.014479	-7.2324047	6.5650077	2.2187366
1237386161583	-7.273266	-7.0689607	5.7886477	1.8714933
1237386161623	-8.144968	-6.8237944	5.7750273	2.2869682
1237386161663	-7.8180795	-6.101916	5.339176	1.4566774
1237386161703	-6.742072	-4.5900574	5.570722	0.07044983
1237386161743	-5.175732	-2.669588	5.7886477	-1.595478
1237386161783	-2.4925237	-0.54481393	5.6660647	-3.592651
1237386161823	-1.1441092	1.3211738	5.611583	-3.929206
1237386161863	-0.92618364	2.0294318	5.5026207	-3.8690376
1237386161903	-1.5799603	1.8115063	5.066769	-4.198622
1237386161943	-2.969236	0.05448139	4.508335	-4.4080935
1237386161982	-4.4810944	-2.6968288	4.1269655	-3.1444478
1237386162023	-6.0882955	-5.911231	4.30403	-0.29167938
1237386162062	-7.327747	-8.335652	5.965712	2.7936945
1237386162103	-7.981524	-9.602345	7.4503303	4.7335415
1237386162143	-7.600154	-9.0983925	7.84532	4.4092607
1237386162182	-6.905516	-8.008764	8.117727	3.5246649
1237386162222	-6.4151835	-7.3958488	7.3413672	2.43054
1237386162263	-6.4151835	-7.0689607	6.7965536	1.911623
1237386162302	-6.578628	-7.286886	6.7965536	2.133626
1237386162343	-6.742072	-7.368608	6.3334618	2.0197887
1237386162383	-7.872561	-7.04172	5.6660647	2.1794806
1237386162423	-7.872561	-6.3607025	5.4617596	1.6940699
1237386162463	-7.1098213	-5.1484914	5.407278	0.50330544
1237386162503	-5.339176	-3.2961242	5.5571017	-1.4249668
1237386162543	-2.383561	-1.1032481	5.5026207	-3.7093267
1237386162582	-0.81722087	0.8308412	5.2302136	-4.4481726
1237386162622	-0.54481393	1.8659877	5.339176	-4.1246142
1237386162662	-1.4709976	1.8115063	5.066769	-4.2283406
1237386162703	-2.8057916	0.38136974	4.508335	-4.4828362
1237386162743	-4.426613	-2.587866	4.004382	-3.3007278
1237386162783	-6.033814	-5.829509	4.399372	-0.33328915
1237386162823	-7.43671	-8.090487	5.843129	2.6393442
1237386162862	-7.8180795	-9.684067	7.2187843	4.5813437
1237386162903	-7.1098213	-9.302697	8.049625	4.4020166
1237386162943	-6.5241466	-8.417375	8.3765135	3.7426186
1237386162983	-5.938472	-7.763598	7.4911914	2.508253
1237386163022	-6.197258	-7.4230895	7.43671	2.3922396
1237386163063	-6.4151835	-7.286886	7.0689607	2.2026587
1237386163103	-6.306221	-7.014479	6.619489	1.7167606
1237386163143	-7.6546354	-6.8782754	6.2244987	2.2203407
1237386163183	-7.4911914	-6.0474343	5.5571017	1.3095894
1237386163223	-6.742072	-4.5900574	5.570722	0.07044983
1237386163263	-5.339176	-2.7785509	5.570722	-1.6054249
1237386163303	-2.4925237	-0.54481393	5.611583	-3.6422877
1237386163343	-1.0896279	1.4301366	5.3936577	-4.121219
1237386163382	-0.87170225	2.2064962	5.3936577	-3.9142795
1237386163423	-1.525479	1.9749504	4.8897047	-4.3169575
1237386163463	-2.547005	0.27240697	4.1814466	-4.9029846
1237386163503	-4.2086873	-2.8602731	3.8954194	-3.398179
1237386163543	-6.197258	-6.238119	4.4129925	0.03177643
1237386163583	-7.5456724	-8.390134	6.0201936	2.9829645
1237386163622	-8.090487	-9.820271	7.6273947	5.0281343
1237386163662	-7.327747	-9.043911	8.281172	4.4785175
1237386163703	-6.6331096	-7.7227373	8.335652	3.3509302
1237386163743	-6.197258	-7.1234417	7.4503303	2.220687
1237386163783	-6.469665	-6.905516	7.286886	2.136609
1237386163823	-6.851035	-7.1234417	6.851035	2.2190218
1237386163863	-6.742072	-7.2596455	6.891896	2.2621613
1237386163903	-8.090487	-6.8237944	6.4424243	2.583869
1237386163943	-7.4911914	-5.965712	5.6252036	1.2996807
1237386163982	-6.469665	-4.3176503	6.0201936	0.029070854
1237386164023	-4.9578066	-2.315459	5.611583	-1.968853
1237386164063	-2.002191	-0.32688835	5.339176	-4.0950456
1237386164102	-0.87170225	1.5935807	5.339176	-4.1669545
1237386164143	-0.87170225	2.083913	4.9578066	-4.3584943
1237386164183	-1.6344417	1.6480621	4.4538536	-4.7842684
1237386164222	-3.0237172	-0.4903325	4.1269655	-4.667084
1237386164262	-5.066769	-4.072484	3.7864566	-2.2837162
1237386164303	-6.742072	-6.66035	4.7262607	0.783597
1237386164342	-7.6546354	-8.689782	5.952092	3.2138395
1237386164383	-7.763598	-9.684067	7.1098213	4.497341
1237386164423	-7.014479	-8.689782	7.995144	3.9278889
1237386164463	-6.6875906	-8.036005	7.940663	3.3217688
1237386164503	-6.578628	-7.477571	7.4911914	2.6557074
1237386164544	-6.905516	-7.2596455	7.43671	2.6710606
1237386164583	-6.742072	-6.9599977	6.4015636	1.8070107
1237386164622	-7.1098213	-7.0689607	6.4015636	2.0887184
1237386164664	-8.240311	-6.496906	6.3334618	2.4499912
1237386164703	-7.763598	-5.6660647	5.5571017	1.2955627
1237386164743	-6.6331096	-4.099725	6.0201936	0.044675827
