timestamp	accel_x	accel_y	accel_z	accel_mag
1235772659556	0.14982383	-0.040861044	0.013620348	-9.650758
1235772661534	8.866846	-3.1599207	-2.6287272	-0.033408165
1235772661575	8.5944395	-2.819412	-1.96133	-0.55136585
1235772661614	8.158588	-2.547005	-1.6753027	-1.0970898
1235772661655	8.21307	-2.383561	-1.2803127	-1.1593914
1235772661695	8.7034025	-2.2064962	-1.3484144	-0.7272196
1235772661735	9.466142	-2.0975335	-1.1713499	-0.04040432
1235772662615	-2.1792557	-1.1032481	-9.00305	-0.47813416
1235772662654	-2.1792557	-1.0487667	-9.125633	-0.36598015
1235772662694	-1.8523673	-0.87170225	-9.125633	-0.45420074
1235772662735	-2.4516625	-0.38136974	-8.839605	-0.6254349
1235772662775	-3.486809	-0.43585113	-9.234595	0.07391453
1235772662855	-3.7047346	-0.20430522	-8.785124	-0.2701311
1235772662895	-3.2688835	-0.5992953	-8.839605	-0.3629551
1235772662935	-3.050958	-0.7082581	-8.567199	-0.68486977
1235772663334	5.8158884	-1.0487667	-8.567199	0.60110474
1235772663455	6.197258	-1.2666923	-7.668256	0.13380527
1235772663535	5.761407	-0.7627395	-8.730643	0.68142414
1235772664234	-3.5957718	-0.54481393	-9.452521	0.32135773
1235772664275	-3.6502533	-0.7627395	-9.39804	0.30419922
1235772664314	-3.050958	-0.54481393	-8.499097	-0.7601137
1235772664355	-2.8875136	-0.7082581	-8.281172	-1.0079479
1235772666374	2.8875136	-3.9362805	-8.730643	0.19615746
1235772666415	4.0861044	-4.3312707	-8.390134	0.4817171
1235772666454	4.30403	-3.881799	-7.559293	-0.2811079
1235772666495	3.759216	-3.3233647	-7.7227373	-0.59702873
1235772666534	3.050958	-2.383561	-8.22669	-0.714448
1235772666575	1.3075534	-1.879608	-7.8317	-1.6471071
1235772666614	-0.27240697	-2.0430522	-9.234595	-0.34483147
1235772666654	-1.6889231	-2.0430522	-8.730643	-0.6824703
1235772666694	-1.96133	-2.0975335	-8.730643	-0.6158619
1235772666734	-2.8330324	-0.9942854	-7.8317	-1.4191475
1235772666774	-4.140586	-0.38136974	-6.496906	-2.0930467
1235772666815	-5.271075	-0.43585113	-6.7148314	-1.2589512
1235772666854	-7.1234417	0.35412905	-5.6524444	-0.70615864
1235772666895	-7.668256	-0.7627395	-6.7148314	0.41454697
1235772666934	-7.7227373	-1.0487667	-5.9248514	-0.016633034
1235772666975	-7.0689607	-1.3756552	-5.992953	-0.4376526
1235772667014	-6.9599977	-1.9340894	-5.597963	-0.66775227
1235772667055	-7.2324047	-2.547005	-3.7455957	-1.2729282
1235772667094	-7.7227373	-2.4925237	-3.4187074	-1.0009184
1235772667135	-7.940663	-4.7126403	-0.2860273	-0.5684185
1235772667174	-6.9599977	-5.611583	0.2860273	-0.86163807
1235772667215	-6.7965536	-5.7750273	-0.10896278	-0.88723564
1235772667255	-6.905516	-7.940663	1.0623871	0.7701616
1235772667294	-6.905516	-7.3822284	-0.667397	0.32394028
1235772667335	-7.4503303	-8.894087	0.61291564	1.8117781
1235772667375	-6.9599977	-8.825985	2.0158114	1.6127663
1235772667414	-4.8488436	-7.8861814	3.6911142	0.15966606
1235772667455	-3.9771416	-6.9463773	5.9248514	0.15194798
1235772667494	-3.1054392	-5.4890003	6.66035	-0.63423824
1235772667535	-2.506144	-4.7126403	8.117727	-0.09134102
1235772667575	-2.0158114	-3.9362805	8.785124	0.028805733
1235772667615	-0.32688835	-3.2688835	9.847511	0.57438755
1235772667655	0.43585113	-3.3778462	10.405946	1.1424828
1235772667695	1.4165162	-4.2086873	10.405946	1.5072031
1235772667735	1.525479	-4.7126403	10.133538	1.4727411
1235772667775	1.4165162	-5.6660647	9.575105	1.4091177
1235772667815	1.7434045	-6.3879433	9.180115	1.512351
1235772667855	2.3426998	-6.1563973	8.281172	0.7748089
1235772667894	2.7785509	-5.8839903	6.8237944	-0.3776598
1235772667935	3.2688835	-5.325556	5.87037	-1.2329473
1235772667975	4.0861044	-6.1563973	4.930566	-0.9236345
1235772668015	4.576437	-6.891896	5.09401	-0.091150284
1235772668055	5.325556	-7.559293	5.434519	0.9189472
1235772668095	5.325556	-7.2187843	5.1484914	0.53643227
1235772668135	4.3585114	-5.434519	4.535576	-1.493885
1235772668175	4.467474	-5.1621118	4.3585114	-1.7071228
1235772668215	3.9771416	-4.9986677	4.6445384	-1.9087977
1235772668255	4.0861044	-6.605869	5.039529	-0.54756737
1235772668294	4.467474	-8.049625	5.706926	1.0249605
1235772668335	3.5957718	-7.940663	5.202973	0.34493256
1235772668375	3.486809	-7.164303	3.0237172	-1.2844477
1235772668415	3.050958	-7.7772183	2.6287272	-1.0485859
1235772668455	3.4323275	-8.22669	2.070293	-0.65539837
1235772668495	3.5412905	-8.335652	1.9068487	-0.5513859
1235772668534	4.0861044	-10.392325	2.7921712	1.703906
1235772668575	4.467474	-9.112013	2.233737	0.58453274
1235772668614	4.140586	-8.444615	2.0158114	-0.18794632
1235772668655	4.5219555	-9.561484	2.3563201	1.0295076
1235772668694	2.9964764	-9.615966	2.3563201	0.5373297
1235772668735	1.7434045	-11.114203	2.233737	1.6630735
1235772668774	0.5992953	-12.054008	2.3563201	2.490118
1235772668815	-3.3233647	-12.721405	0.55843425	3.3535452
1235772668855	-3.1599207	-11.618156	-0.667397	2.2520418
1235772668895	-2.5606253	-10.392325	0.3405087	0.901906
1235772668935	-1.525479	-8.444615	0.7218784	-1.1950455
1235772668974	2.070293	-6.66035	1.3484144	-2.7028065
1235772669015	2.7240696	-7.995144	2.3563201	-1.0376635
1235772669054	2.9419951	-7.8317	0.61291564	-1.4181747
1235772669095	2.070293	-9.384419	0.16344418	-0.19519043
1235772669135	1.3620348	-9.888372	0.61291564	0.1938858
1235772669174	1.253072	-9.670447	0.55843425	-0.039378166
1235772669215	0.980665	-10.051817	1.0623871	0.34861374
1235772669254	1.8523673	-10.283362	1.0079057	0.6907158
1235772669295	1.9068487	-10.392325	0.667397	0.7802248
1235772669334	2.1247742	-9.670447	0.667397	0.116939545
1235772669375	2.5606253	-9.057531	0.89894295	-0.35129356
1235772669415	2.3971813	-9.112013	0.95342433	-0.3364725
1235772669455	2.669588	-9.438901	0.84446156	0.038788795
1235772669494	2.3971813	-9.561484	1.1168685	0.11382675
1235772669535	2.3426998	-9.997335	0.84446156	0.49616814
1235772669575	1.6889231	-9.561484	0.89894295	-0.0556221
1235772669615	1.0896279	-8.499097	1.2258313	-1.1507502
1235772669655	0.27240697	-9.384419	0.667397	-0.3945856
1235772669695	0.16344418	-9.724928	0.667397	-0.05747795
1235772669734	0.4903325	-10.228881	0.10896278	0.434556
1235772669774	0.87170225	-11.3321295	0.10896278	1.5594797
1235772669814	1.525479	-10.773695	0.05448139	1.0746441
1235772669855	0.6537767	-9.997335	0.89894295	0.25228786
1235772669894	2.5606253	-9.724928	0.3949901	0.25749588
1235772669935	-0.32688835	-13.838273	-6.769313	5.6020565
1235772669974	-1.0896279	-15.4046135	-7.7772183	7.48423
1235772670015	-1.1441092	-14.001718	-9.629586	7.2252617
1235772670055	1.6344417	-9.779409	-4.7535014	1.1889868
1235772670094	6.3607025	-5.4890003	3.7455957	-0.60789204
1235772670135	8.158588	-3.050958	4.930566	0.20241451
1235772670175	8.104107	-5.6660647	5.1484914	1.341794
1235772670215	3.2688835	-7.8861814	0.84446156	-1.2281561
1235772670255	1.0351465	-7.668256	-1.4028958	-1.9426947
1235772670295	-0.6537767	-9.057531	-1.7842655	-0.55192757
1235772670335	-0.81722087	-8.390134	-1.2258313	-1.2881489
1235772670374	-1.253072	-10.051817	-1.4573772	0.42727184
1235772670415	-1.3075534	-10.106298	-0.84446156	0.4188118
1235772670454	-1.1441092	-9.057531	-0.50395286	-0.6632471
1235772670495	-0.7627395	-8.825985	-0.61291564	-0.9265909
1235772670535	-0.92618364	-9.220976	-0.05448139	-0.5391159
1235772670575	-1.0896279	-9.724928	0.05448139	-0.02071762
1235772670614	-1.9068487	-10.501288	0.05448139	0.866498
1235772670655	-2.506144	-10.337844	0.44947147	0.84012413
1235772670707	-2.8875136	-9.833891	0.21792556	0.44472313
1235772670744	-3.1054392	-9.615966	0.10896278	0.29891396
1235772670784	-2.6151068	-9.220976	0.16344418	-0.22062397
1235772670824	-2.4516625	-9.384419	0.0	-0.10727024
1235772670863	-2.070293	-9.561484	-0.2860273	-0.019418716
1235772670904	-1.9068487	-9.329938	-0.3405087	-0.27775955
1235772670943	-1.6344417	-8.948568	-0.2860273	-0.7055464
1235772670984	-0.32688835	-8.948568	-0.55843425	-0.8347168
1235772671023	-0.43585113	-9.220976	-0.667397	-0.5512848
1235772671065	0.54481393	-9.561484	-1.0623871	-0.17091084
1235772671105	0.10896278	-9.507003	-0.667397	-0.27562714
1235772671145	-1.3075534	-9.384419	-0.2860273	-0.32726002
1235772671184	-0.43585113	-9.220976	0.3405087	-0.56910133
1235772671225	-1.3075534	-8.771504	0.7899802	-0.9031086
1235772671265	-0.32688835	-9.670447	0.667397	-0.10768986
1235772671305	-0.81722087	-10.501288	0.16344418	0.72765636
1235772671344	-1.8523673	-7.6137743	-0.50395286	-1.9545937
1235772671384	-1.0351465	-8.158588	-0.50395286	-1.5672293
1235772671425	-3.5957718	-11.999526	-0.61291564	2.735036
1235772671465	-0.87170225	-9.275456	-1.1168685	-0.4236145
1235772671505	0.10896278	-11.890564	0.84446156	2.1143608
1235772671544	-1.3620348	-11.727119	-0.50395286	2.0100508
1235772671585	1.1985906	-7.559293	-0.2860273	-2.1475816
1235772671625	-0.27240697	-9.888372	0.61291564	0.10444355
1235772671664	-1.0351465	-9.997335	-0.7218784	0.27002335
1235772671704	-0.4903325	-9.888372	0.89894295	0.13459873
1235772671744	-1.1985906	-9.779409	0.61291564	0.064982414
1235772671784	-1.253072	-9.670447	1.0623871	0.0023460388
1235772671824	-0.980665	-9.615966	1.1713499	-0.0700922
1235772671865	-0.5992953	-9.275456	0.7218784	-0.48386288
1235772671905	0.16344418	-11.618156	0.3949901	1.8193674
1235772671945	-0.54481393	-11.509193	-0.2860273	1.7189808
1235772671984	0.16344418	-11.509193	-0.3405087	1.7087393
1235772672025	0.10896278	-11.781601	0.05448139	1.9755812
1235772672065	-2.1792557	-9.888372	0.3405087	0.3247366
1235772672105	-3.1599207	-9.438901	0.2860273	0.15124893
1235772672145	-3.92266	-7.940663	0.3405087	-0.94339275
1235772672184	-5.053149	-8.553578	0.7899802	0.15939713
1235772672224	-4.2495484	-8.553578	-0.05448139	-0.25545502
1235772672265	-2.669588	-9.057531	0.7218784	-0.33634472
1235772672305	-2.506144	-10.773695	0.10896278	1.2552271
1235772672345	-0.87170225	-9.833891	-0.05448139	0.06595039
1235772672384	0.5992953	-9.275456	0.667397	-0.48792362
1235772672425	0.38136974	-9.561484	0.0	-0.23756313
1235772672465	-0.21792556	-9.888372	0.10896278	0.08472347
1235772672505	-0.7082581	-9.997335	0.21792556	0.21811104
1235772672544	-0.6537767	-10.051817	0.89894295	0.3064375
1235772672585	-0.92618364	-10.106298	1.2258313	0.41576385
1235772672624	-2.0158114	-9.670447	1.8523673	0.24383831
1235772672665	-2.8330324	-9.670447	1.7842655	0.42698193
1235772672705	-2.5606253	-9.724928	1.96133	0.43921947
1235772672745	-1.7434045	-9.561484	1.6208214	0.046699524
1235772672784	0.21792556	-9.779409	1.2803127	0.0586195
1235772672825	1.253072	-9.942854	1.0623871	0.2710085
1235772672864	0.38136974	-10.337844	0.21792556	0.54052067
1235772672905	-0.10896278	-10.392325	0.44947147	0.5959616
1235772672945	0.21792556	-9.561484	0.61291564	-0.22306347
1235772672985	0.6537767	-9.670447	0.84446156	-0.07741165
1235772673025	-0.27240697	-9.615966	1.1713499	-0.11577511
1235772673065	-0.5992953	-8.390134	1.7297841	-1.219121
1235772673105	0.81722087	-10.174399	1.7842655	0.5552921
1235772673145	-0.10896278	-9.942854	1.4573772	0.24303436
1235772673185	0.81722087	-9.438901	1.2803127	-0.24632072
1235772673225	1.5799603	-10.55577	0.7899802	0.8959017
1235772673265	-0.05448139	-9.561484	0.50395286	-0.23173904
1235772673304	0.4903325	-9.779409	0.50395286	-0.0019960403
1235772673344	0.4903325	-9.888372	0.7218784	0.12015438
1235772673384	0.32688835	-9.779409	0.95342433	0.024561882
1235772673425	0.16344418	-9.507003	1.1713499	-0.22636414
1235772673465	-0.05448139	-9.220976	1.4573772	-0.47105598
1235772673504	0.4903325	-9.275456	1.5118586	-0.39600563
1235772673544	0.4903325	-9.329938	1.5118586	-0.34230232
1235772673585	0.32688835	-9.438901	1.56634	-0.23308563
1235772673625	0.27240697	-9.615966	1.6208214	-0.05123806
1235772673665	-0.4903325	-9.670447	1.56634	0.0020914078
1235772673705	-0.47671217	-9.765789	1.5935807	0.09978199
1235772673745	-0.25878662	-9.929234	1.6480621	0.26175404
1235772673785	-0.313268	-9.997335	1.6344417	0.3282528
1235772673825	-0.25878662	-9.942854	1.6889231	0.28194618
1235772673865	-0.32688835	-9.997335	1.7978859	0.35632038
1235772673904	-0.54481393	-9.833891	1.9749504	0.23838139
1235772673945	-0.5992953	-9.80665	2.0294318	0.2257042
1235772673984	-0.38136974	-9.697687	2.192876	0.14318848
1235772674025	-0.4903325	-9.561484	2.233737	0.024523735
1235772674064	-0.54481393	-9.507003	2.2882185	-0.0129852295
1235772674104	-0.4903325	-9.425281	2.2882185	-0.09519863
1235772674145	-0.5992953	-9.479762	2.233737	-0.048851967
1235772674184	-0.5992953	-9.479762	2.2201166	-0.051960945
1235772674224	-0.5992953	-9.547864	2.1111538	-0.009822845
1235772674264	-0.5992953	-9.575105	2.1792557	0.031588554
1235772674304	-0.5992953	-9.520623	2.1792557	-0.021428108
1235772674344	-0.7082581	-9.520623	2.1792557	-0.0141506195
1235772674384	-0.7082581	-9.452521	2.233737	-0.06799698
1235772674424	-0.7082581	-9.452521	2.1792557	-0.080348015
1235772674464	-0.6537767	-9.520623	2.1247742	-0.029925346
1235772674504	-0.5992953	-9.520623	2.070293	-0.04511738
1235772674544	-0.5992953	-9.575105	2.0158114	-0.0033197403
1235772674584	-0.54481393	-9.575105	2.002191	-0.009292603
1235772674624	-0.5992953	-9.575105	2.0566726	0.0051631927
1235772674664	-0.5992953	-9.629586	2.1247742	0.07275963
1235772674704	-0.5992953	-9.629586	2.1792557	0.084620476
1235772674744	-0.6537767	-9.629586	2.1247742	0.07621479
1235772674784	-0.6537767	-9.629586	2.070293	0.06464481
1235772674824	-0.6537767	-9.629586	2.0158114	0.053362846
1235772674864	-0.6537767	-9.629586	1.96133	0.042367935
1235772675065	-0.7082581	-9.575105	1.8932283	-0.020507812
1235772675224	-0.6537767	-9.575105	1.9477097	-0.01361084
1235772675385	-0.667397	-9.629586	1.96133	0.043281555
1235772675544	-0.7218784	-9.629586	1.96133	0.04712391
1235772675664	-0.7218784	-9.629586	1.9068487	0.036423683
1235772675705	-0.6537767	-9.575105	1.8932283	-0.024300575
1235772675824	-0.6537767	-9.575105	1.9477097	-0.01361084
1235772675865	-0.667397	-9.629586	1.96133	0.043281555
1235772675944	-0.667397	-9.629586	2.0158114	0.05427456
1235772675984	-0.667397	-9.629586	1.96133	0.043281555
1235772676024	-0.667397	-9.575105	1.96133	-0.009973526
1235772676104	-0.7218784	-9.575105	1.8523673	-0.027335167
1235772676144	-0.7218784	-9.575105	1.9068487	-0.016869545
1235772676184	-0.7218784	-9.629586	1.8523673	0.026015282
1235772676224	-0.667397	-9.629586	1.8523673	0.022165298
1235772676265	-0.6537767	-9.588725	1.8387469	-0.021351814
1235772676344	-0.6537767	-9.588725	1.8932283	-0.010968208
1235772676384	-0.7082581	-9.588725	1.8387469	-0.017560959
1235772676425	-0.6537767	-9.588725	1.8932283	-0.010968208
1235772676504	-0.7082581	-9.588725	1.8932283	-0.0071811676
1235772676544	-0.7082581	-9.588725	1.9477097	0.003490448
1235772676664	-0.6537767	-9.588725	1.9477097	-2.9277802E-4
1235772676773	-0.6537767	-9.588725	1.8932283	-0.010968208
1235772676854	-0.6537767	-9.602345	1.8387469	-0.008005142
1235772676933	-0.6537767	-9.602345	1.8932283	0.0023651123
1235772676974	-0.6537767	-9.602345	1.9477097	0.013025284
1235772677053	-0.6537767	-9.602345	2.002191	0.02397728
1235772677094	-0.6537767	-9.547864	2.002191	-0.029232979
1235772677173	-0.6537767	-9.479762	2.1656353	-0.060712814
1235772677214	-0.7082581	-9.479762	2.2201166	-0.04466057
1235772677253	-0.7082581	-9.547864	2.3426998	0.049900055
1235772677294	-0.7082581	-9.479762	2.3971813	-0.002875328
1235772677334	-0.7082581	-9.479762	2.3426998	-0.016054153
1235772677374	-0.6537767	-9.425281	2.2745981	-0.088772774
1235772677415	-0.5992953	-9.316318	2.2064962	-0.21386433
1235772677454	-0.5992953	-9.425281	2.0975335	-0.13221455
1235772677495	-0.54481393	-9.602345	1.9340894	0.0036792755
1235772677535	-0.4903325	-9.711308	1.879608	0.09702873
1235772677574	-0.54481393	-9.820271	1.7025435	0.17499256
1235772677614	-0.54481393	-9.820271	1.5935807	0.15698528
1235772677654	-0.54481393	-9.820271	1.5390993	0.14841747
1235772677694	-0.43585113	-9.820271	1.3756552	0.11907959
1235772677735	-0.3405087	-9.711308	1.4982382	0.025447845
1235772677774	0.14982383	-9.479762	1.4437568	-0.21640682
1235772677815	0.21792556	-9.220976	1.879608	-0.39353085
1235772677855	-0.4903325	-9.057531	1.7025435	-0.5774603
1235772677895	-0.12258313	-9.220976	1.5935807	-0.4481821
1235772677934	-0.12258313	-9.166494	1.5935807	-0.5018587
1235772677975	-0.3405087	-9.329938	0.87170225	-0.42989445
1235772678015	0.20430522	-9.615966	0.58567494	-0.17069912
1235772678055	-0.3405087	-9.670447	0.06810174	-0.1299696
1235772678094	-1.1032481	-9.724928	-0.14982383	-0.018196106
1235772678135	-0.7763598	-9.384419	0.53119355	-0.37520123
1235772678174	-0.3949901	-9.561484	0.58567494	-0.21910572
1235772678215	0.14982383	-10.283362	0.40861043	0.48591805
1235772678255	1.1849703	-11.9450445	0.06810174	2.197219
1235772678295	1.0215261	-13.279839	-1.0351465	3.5525846
1235772678335	0.47671217	-13.892755	-1.5935807	4.1853256
1235772678375	-0.2860273	-13.0619135	-0.6537767	3.2747421
1235772678415	-0.88532263	-12.340035	0.5720546	2.5783215
1235772678455	-0.46309182	-12.6669235	1.525479	2.9602013
1235772678495	0.13620348	-12.176591	2.5333846	2.6314354
1235772678535	0.47671217	-10.787315	2.4789033	1.2720861
1235772678575	0.3677494	-8.567199	1.8659877	-1.0308857
1235772678615	-0.5720546	-5.7341666	1.6344417	-3.8167157
1235772678654	-1.6616824	-3.5549107	1.4165162	-5.6347084
1235772678694	-2.315459	-3.5549107	0.40861043	-5.544526
1235772678734	-2.8057916	-5.012288	-2.3426998	-3.6031237
1235772678774	-2.2064962	-9.343558	-5.243834	1.1326599
1235772678815	-1.8251266	-11.182305	-7.3141265	3.6793242
1235772678855	-2.4244218	-11.74074	-8.880466	5.112649
1235772678894	-1.607201	-14.069819	-4.739881	5.126849
1235772678935	-2.0430522	-10.514909	-0.040861044	0.90498066
1235772678975	-5.0259085	-8.008764	1.5799603	-0.22039223
1235772679015	0.24516626	-10.065437	6.891896	2.3946352
1235772679055	0.89894295	-8.907707	3.881799	-0.048386574
1235772679095	0.40861043	-8.294792	2.192876	-1.217166
1235772679134	3.13268	-10.18802	2.4789033	1.1365843
1235772679175	0.89894295	-10.514909	-0.7627395	0.77414227
1235772679214	0.13620348	-8.62168	0.35412905	-1.1766253
1235772679255	0.626536	-9.847511	0.12258313	0.061533928
1235772679295	1.4982382	-10.96438	0.17706452	1.2610369
1235772679335	0.5720546	-10.405946	-0.14982383	0.61608505
1235772679374	1.0079057	-12.244693	-1.1032481	2.5288887
1235772679415	2.6423476	-14.519291	-1.7161638	5.0505714
1235772679454	1.8251266	-14.519291	-0.040861044	4.8269606
1235772679495	0.13620348	-13.960856	1.4028958	4.225177
1235772679535	-0.24516626	-16.194593	2.5742457	6.5930977
1235772679575	-1.9885708	-14.914281	4.426613	5.877261
1235772679615	-1.879608	-12.857608	3.5276701	3.6579504
1235772679655	-0.84446156	-9.629586	3.0781987	0.33816814
1235772679695	-1.0623871	-3.445948	3.8545585	-4.528313
1235772679735	-1.1713499	-0.55843425	2.8602731	-6.665779
1235772679775	-1.9885708	-0.88532263	1.6208214	-7.0927467
1235772679815	-2.9147544	-4.780742	-3.7455957	-3.0701246
1235772679855	-2.4244218	-10.623871	-7.3822284	3.355483
1235772679894	-2.4244218	-10.065437	-9.452521	4.212659
1235772679935	-1.0079057	-13.74293	-9.39804	6.8728924
1235772679974	-1.3892754	-14.015338	-4.7535014	5.0579243
1235772680014	-5.952092	-6.782933	-2.4108016	-0.4660101
1235772680055	-1.607201	-10.909899	3.0237172	1.628027
1235772680095	-0.13620348	-10.460427	0.3949901	0.66211796
1235772680135	0.24516626	-7.177923	1.4573772	-2.478169
1235772680175	3.0237172	-10.010956	2.1247742	0.8646555
1235772680214	0.35412905	-9.738548	-1.1168685	0.0021276474
1235772680255	-0.89894295	-7.2324047	1.2803127	-2.4069896
1235772680295	0.24516626	-9.234595	0.10896278	-0.5681591
1235772680334	2.152015	-11.236787	0.10896278	1.6348715
1235772680374	1.1713499	-11.795221	-0.84446156	2.0766325
1235772680415	0.51757324	-13.906375	-1.6208214	4.2034254
1235772680455	-0.24516626	-14.355846	-1.6753027	4.648698
1235772680495	-1.6616824	-14.192402	-0.44947147	4.489765
1235772680535	-1.879608	-14.301365	0.61291564	4.630719
1235772680575	-1.334794	-15.186687	2.7921712	5.692168
1235772680614	-1.3892754	-14.015338	4.3585114	4.9363623
1235772680655	-1.4982382	-11.468333	3.800077	2.3674192
1235772680695	-1.0623871	-6.905516	4.0861044	-1.712759
1235772680735	-1.2803127	-1.7297841	4.140586	-5.140195
1235772680775	-2.0975335	-0.27240697	3.0237172	-6.1165667
1235772680816	-2.2609777	-2.2745981	0.2860273	-6.58677
1235772680855	-2.152015	-9.39804	-4.862464	0.9913988
1235772680895	-2.8057916	-9.956474	-6.7148314	2.525941
1235772680935	-2.4789033	-11.073342	-9.684067	5.111293
1235772680975	-0.95342433	-15.527196	-3.5276701	6.1447535
1235772681015	-3.568531	-10.296983	2.233737	1.3177309
1235772681055	-1.9340894	-5.7886477	5.8158884	-1.3761282
1235772681095	2.152015	-10.405946	9.180115	4.2357635
1235772681135	2.6423476	-6.238119	4.140586	-1.8668399
1235772681174	3.3506055	-4.9578066	2.9147544	-3.1506605
1235772681215	1.7161638	-11.018862	0.667397	1.3650084
1235772681255	0.08172209	-8.008764	0.21792556	-1.7945051
1235772681295	-0.7354988	-7.7363577	0.44947147	-2.0224214
1235772681335	0.89894295	-9.738548	0.55843425	-0.010769844
1235772681375	1.7161638	-10.678352	-0.16344418	1.009964
1235772681415	0.5720546	-11.34575	-0.84446156	1.584856
1235772681455	0.84446156	-13.74293	-0.89894295	3.9915152
1235772681495	-0.19068487	-14.6827345	-0.10896278	4.8777266
1235772681535	-2.152015	-15.077724	2.070293	5.56394
1235772681575	-2.8602731	-15.2956505	3.3097446	6.102231
1235772681615	-4.004382	-15.186687	4.5491962	6.544672
1235772681655	-3.8954194	-13.633968	4.140586	4.9650736
1235772681695	-2.4244218	-11.018862	3.13268	1.9026127
1235772681734	-1.607201	-6.67397	3.1871614	-2.2380986
1235772681775	-0.84446156	-1.607201	2.8602731	-6.4188232
1235772681814	-0.6810174	-0.16344418	2.070293	-7.6211042
1235772681855	-1.334794	-1.607201	-0.55843425	-7.644101
1235772681895	-2.315459	-8.567199	-5.761407	0.7740898
1235772681935	-3.0237172	-10.855417	-6.932757	3.4238472
1235772681975	-4.113345	-10.96438	-8.894087	4.8985195
1235772682015	-2.6423476	-14.805318	-3.8545585	5.7187176
1235772682055	-3.2961242	-9.520623	2.5742457	0.5920725
1235772682095	-3.2416427	-5.5026207	4.69902	-1.8777242
1235772682135	1.6616824	-10.351464	8.839605	3.906577
1235772682174	1.7706453	-7.4503303	3.800077	-1.2577791
1235772682215	1.334794	-6.2926006	1.96133	-3.0816736
1235772682255	1.4437568	-10.405946	1.0623871	0.7525549
1235772682295	-0.13620348	-8.117727	-0.667397	-1.6603947
1235772682335	-1.2803127	-7.572913	0.7899802	-2.085751
1235772682375	0.51757324	-10.010956	1.0623871	0.2738161
1235772682415	1.9885708	-11.291268	0.44947147	1.6671982
1235772682455	0.46309182	-12.244693	-0.55843425	2.4595137
1235772682495	1.2803127	-14.968762	0.0	5.2167664
1235772682535	-0.027240695	-15.69064	0.50395286	5.892105
1235772682575	-1.7706453	-15.636159	2.1247742	6.0722446
1235772682615	-1.3892754	-16.140112	3.1871614	6.7036877
1235772682655	-2.315459	-15.077724	4.031623	5.9715977
1235772682695	-2.0430522	-12.803127	3.881799	3.7271032
1235772682734	-1.3892754	-9.684067	3.1463003	0.47004414
1235772682774	-1.1713499	-4.7262607	3.6502533	-3.7210975
1235772682814	-0.46309182	-0.3405087	3.6502533	-6.111417
1235772682855	-0.7899802	0.16344418	2.6968288	-6.991749
1235772682895	-2.3699405	-3.8954194	-2.3971813	-4.655205
1235772682934	-2.0975335	-11.236787	-6.537767	3.3617754
1235772682975	-3.13268	-11.073342	-8.989429	4.796173
1235772683014	-2.3699405	-15.636159	-10.787315	9.336815
1235772683055	-2.0975335	-16.521482	-5.6933055	7.7937126
1235772683095	-9.329938	-8.063246	-2.7240696	2.8220558
1235772683135	-3.568531	-12.517099	4.3176503	3.906639
1235772683175	-1.1713499	-12.13573	3.3778462	2.8447466
1235772683214	-0.027240695	-8.172209	3.3778462	-0.9638233
1235772683255	4.440233	-10.514909	3.5412905	2.1440706
1235772683294	0.35412905	-10.119919	-1.7706453	0.47310448
1235772683335	0.08172209	-7.286886	0.8036005	-2.4751315
1235772683375	-0.29964766	-8.907707	0.46309182	-0.8818817
1235772683415	1.4437568	-11.34575	0.013620348	1.6305981
1235772683454	1.879608	-11.34575	-0.5992953	1.7093449
1235772683495	0.89894295	-13.021052	-0.939804	3.2791872
1235772683534	0.84446156	-14.137921	-1.4982382	4.4354935
1235772683575	-0.51757324	-13.74293	1.1849703	3.9969788
1235772683615	-2.152015	-14.137921	2.3018389	4.6781845
1235772683655	-3.13268	-15.799603	3.3097446	6.6370583
1235772683695	-2.6423476	-14.464809	5.1076303	5.7593575
1235772683734	-1.879608	-12.517099	3.5412905	3.3368444
1235772683774	-1.3892754	-8.730643	3.5957718	-0.26286793
1235772683814	-0.89894295	-3.173541	3.990762	-4.629234
1235772683855	-1.334794	-0.88532263	2.6968288	-6.6700344
1235772683895	-1.5527196	-1.4437568	1.4165162	-7.2567697
1235772683934	-3.6230125	-6.0610547	-4.0180025	-1.6821842
1235772683975	-3.840938	-11.236787	-6.9191365	3.937172
1235772684014	-3.840938	-9.520623	-9.384419	4.1024265
1235772684055	-2.0975335	-14.750836	-6.864655	6.597931
1235772684095	-1.334794	-10.96438	0.51757324	1.2508001
1235772684135	-2.3699405	-2.2201166	2.982856	-5.397232
1235772684175	1.7706453	-10.010956	7.3413672	2.7332897
1235772684215	1.879608	-6.2926006	3.486809	-2.371088
1235772684255	2.2064962	-5.843129	1.4165162	-3.402175
1235772684295	1.7706453	-11.522814	1.2394516	1.9171143
1235772684335	-1.1168685	-8.117727	-0.5992953	-1.5905657
1235772684374	-1.3892754	-7.0689607	1.525479	-2.4427261
1235772684415	-0.40861043	-8.962189	0.51757324	-0.8202343
1235772684455	0.51757324	-10.18802	0.35412905	0.4006529
1235772684494	1.1713499	-10.787315	0.12258313	1.0447674
1235772684539	0.027240695	-12.626062	-0.7627395	2.8424597
1235772684575	0.7354988	-14.069819	-0.6537767	4.2975407
1235772684626	0.5720546	-13.797412	1.0760075	4.0444727
1235772684665	-1.4982382	-14.069819	2.0294318	4.4875145
1235772684705	-1.3892754	-15.132206	3.4187074	5.7690134
1235772684745	-3.0781987	-13.74293	4.30403	4.919793
1235772684785	-2.9283748	-12.13573	3.1871614	3.0778103
1235772684825	-1.8932283	-9.180115	3.0237172	0.04229355
1235772684865	-0.8036005	-4.7262607	3.1871614	-4.049801
1235772684905	0.013620348	-2.2745981	2.9147544	-6.1093845
1235772684944	-0.6401563	-1.7842655	1.9068487	-7.117882
1235772684985	-1.8387469	-3.6230125	-1.7297841	-5.390842
1235772685025	-2.1656353	-9.289077	-5.09401	1.0065765
1235772685065	-3.091819	-9.847511	-6.496906	2.3893576
1235772685105	-3.255263	-12.190211	-7.7227373	4.9865465
1235772685149	-3.1463003	-16.358038	-3.5276701	7.2206535
1235772685184	-7.5456724	-10.56939	-0.3405087	3.1843138
1235772685225	-3.8545585	-9.956474	3.4731886	1.42064
1235772685265	-0.095342435	-12.462618	4.535576	3.4559813
1235772685304	1.1032481	-7.7908387	3.1871614	-1.3171082
1235772685345	3.8273177	-8.62168	2.8602731	0.050474167
1235772685385	0.7218784	-10.678352	0.50395286	0.9079323
1235772685425	-0.6401563	-7.7908387	1.7842655	-1.7885103
1235772685465	-0.9670447	-7.954283	1.4573772	-1.662343
1235772685504	-0.47671217	-9.684067	0.84446156	-0.07415199
1235772685545	0.50395286	-10.405946	0.21792556	0.6137705
1235772685585	0.9942854	-11.236787	-0.3949901	1.4809532
1235772685625	0.12258313	-12.680544	-1.1168685	2.9235744
1235772685665	1.4301366	-13.906375	-1.3484144	4.2379494
1235772685704	0.3949901	-13.075534	0.7899802	3.2986803
1235772685745	-2.0975335	-13.416042	2.233737	3.9548693
1235772685784	-1.5527196	-13.811032	4.195067	4.710723
1235772685825	-2.9147544	-13.484144	5.1484914	4.9183245
1235772685864	-3.0237172	-12.639683	3.5821514	3.6743088
1235772685905	-2.2609777	-9.643207	2.6287272	0.44096756
1235772685945	-1.4982382	-5.8567495	2.3563201	-3.3183165
1235772685984	-0.95342433	-2.465283	2.3563201	-6.2656217
1235772686025	-1.1713499	-1.9068487	1.9068487	-6.8665476
1235772686065	-2.0975335	-2.7921712	0.44947147	-6.2855864
1235772686105	-2.7513103	-8.471856	-5.1484914	0.48164558
1235772686145	-2.587866	-11.699879	-7.504812	4.332176
1235772686185	-3.0781987	-11.35937	-9.180115	5.119338
1235772686224	-1.7706453	-12.980191	-9.234595	6.2213974
1235772686265	-3.5140498	-13.252599	-4.7535014	4.7045765
1235772686304	-7.205164	-9.915613	-2.5197644	2.7066622
1235772686344	-2.4789033	-11.141444	2.969236	1.9871244
1235772686385	-0.7354988	-12.816748	1.96133	3.1801434
1235772686425	1.0623871	-8.19945	2.969236	-1.0216627
1235772686465	3.8954194	-9.030291	2.6832085	0.38746834
1235772686505	0.7354988	-10.20164	-0.89894295	0.4608965
1235772686544	-0.13620348	-7.4639506	1.2803127	-2.232463
1235772686585	-0.08172209	-8.417375	0.667397	-1.362463
1235772686625	0.35412905	-9.915613	0.7218784	0.14151001
1235772686665	0.19068487	-10.024576	0.3949901	0.22751617
1235772686705	0.027240695	-11.195926	0.05448139	1.3894415
1235772686744	-0.29964766	-12.14935	0.05448139	2.3465166
1235772686785	0.3949901	-13.593107	-0.10896278	3.7926311
1235772686825	-1.0760075	-13.416042	1.7297841	3.763174
1235772686865	-2.1111538	-12.980191	3.173541	3.7216053
1235772686905	-1.2394516	-13.974477	3.1190596	4.5652237
1235772686945	-1.8932283	-13.252599	4.807983	4.4177094
1235772686985	-0.9125633	-11.699879	3.800077	2.5286865
1235772687024	-0.9125633	-9.534244	2.901134	0.20090485
1235772687064	-0.9125633	-5.407278	3.6230125	-3.2341585
1235772687105	-0.8036005	-2.5742457	2.506144	-6.1251736
1235772687144	-1.2394516	-2.070293	1.5527196	-6.9372787
1235772687185	-2.2745981	-3.405087	-0.23154591	-5.7051835
1235772687225	-2.8738933	-9.752169	-4.7126403	1.3992872
1235772687265	-2.1656353	-11.645397	-6.006573	3.4743204
1235772687305	-0.9670447	-10.746454	-8.240311	3.7699537
1235772687345	0.7763598	-12.748646	-4.2086873	3.6411657
1235772687385	-0.14982383	-9.139254	-1.8659877	-0.47764683
1235772687425	-2.6014864	-4.576437	-0.46309182	-4.522148
1235772687465	0.17706452	-8.975809	4.9169455	0.42921066
1235772687505	0.55843425	-8.689782	-0.5720546	-1.0801725
1235772687545	1.3211738	-6.469665	1.8387469	-2.9522314
1235772687585	2.3563201	-10.58301	1.1032481	1.0914917
1235772687624	-0.3677494	-9.41166	-1.920469	-0.1940136
1235772687665	-0.6401563	-7.3005066	1.1577295	-2.3872476
1235772687705	-0.8036005	-8.635301	0.43585113	-1.1230936
1235772687745	-0.53119355	-9.861132	0.7627395	0.09819031
1235772687785	-0.313268	-10.024576	0.4903325	0.23479843
1235772687824	-0.7491191	-12.026767	-0.5720546	2.2569942
1235772687865	-0.25878662	-13.484144	-0.6810174	3.6971607
1235772687905	0.06810174	-13.756551	-1.920469	4.083473
1235772687945	-1.3484144	-13.143636	0.38136974	3.4114752
1235772687985	-0.9670447	-13.089154	1.96133	3.4639168
1235772688025	-0.58567494	-14.532911	2.1247742	4.892438
1235772688065	-0.6401563	-13.974477	5.2574544	5.137801
1235772688105	-0.42223078	-12.258313	4.140586	3.1389656
1235772688145	-0.9670447	-9.139254	3.92266	0.18576622
1235772688185	-0.8036005	-4.5219555	4.2495484	-3.5494528
1235772688224	-1.3484144	-3.1871614	2.5742457	-5.493535
1235772688265	-1.8932283	-3.5140498	1.8523673	-5.4061813
1235772688304	-3.1463003	-5.8567495	-1.4028958	-3.0118847
1235772688344	-3.4187074	-12.081248	-5.597963	3.9403973
1235772688385	-1.8387469	-11.304889	-7.2187843	3.7319002
1235772688424	0.3949901	-11.250407	-9.234595	4.7537565
1235772688465	-0.313268	-15.036864	-3.5821514	5.6541786
1235772688505	-2.4925237	-9.80665	1.2803127	0.3924799
1235772688544	-3.4731886	-6.5241466	3.6911142	-1.5451822
1235772688585	-1.9477097	-11.699879	8.063246	4.5354786
1235772688624	0.7218784	-7.913422	3.636633	-1.0677452
1235772688665	1.8659877	-7.137062	2.7921712	-1.918952
1235772688705	1.4301366	-12.026767	1.2803127	2.3723316
1235772688744	-0.3677494	-8.580819	-1.0623871	-1.1524973
1235772688785	-1.3484144	-6.851035	0.667397	-2.792356
1235772688824	-1.4028958	-8.635301	0.55843425	-1.040329
1235772688865	-0.8036005	-9.970095	0.89894295	0.23609161
1235772688905	-0.095342435	-10.133538	0.667397	0.34928894
1235772688945	-0.47671217	-12.585201	-0.21792556	2.7894611
1235772688984	0.7218784	-14.47843	-0.7899802	4.711273
1235772689025	0.44947147	-14.028958	-0.84446156	4.2548866
1235772689065	-1.56634	-14.369467	1.1168685	4.691018
1235772689104	-0.42223078	-14.151542	2.233737	4.5263186
1235772689145	-0.8580819	-13.865514	3.0237172	4.4106503
1235772689185	-0.040861044	-12.748646	4.235928	3.6273632
1235772689225	0.3949901	-10.691973	3.2825038	1.3848257
1235772689265	-0.040861044	-8.063246	3.568531	-0.98894024
1235772689305	-0.20430522	-4.9578066	3.6230125	-3.662726
1235772689345	-1.4573772	-4.344891	2.8466527	-4.4117026
1235772689385	-2.7649305	-4.2223077	2.002191	-4.376964
1235772689424	-4.0180025	-6.4015636	-1.6889231	-2.0621796
1235772689465	-2.8738933	-11.291268	-5.5571017	3.102006
1235772689505	-1.293933	-10.623871	-7.177923	3.0799112
1235772689544	1.7025435	-13.402422	-8.349273	6.075224
1235772689584	0.88532263	-14.137921	-4.2086873	4.970957
1235772689625	-6.074675	-6.115536	-2.4789033	-0.83745766
1235772689665	-2.2745981	-9.575105	3.6230125	0.6806116
1235772689705	-2.002191	-10.296983	1.7706453	0.8315735
1235772689745	-0.53119355	-7.6273947	1.334794	-2.0451431
1235772689785	4.1542063	-10.96438	2.7240696	2.23061
1235772689825	-0.313268	-9.684067	-2.4244218	0.18119812
1235772689865	-1.0215261	-7.572913	1.2122109	-2.0695972
1235772689904	-0.8580819	-8.62168	0.43585113	-1.1314182
1235772689945	0.06810174	-9.847511	0.4903325	0.05329609
1235772689985	-0.53119355	-9.79303	0.7082581	0.026316643
1235772690025	-0.20430522	-11.073342	-0.17706452	1.2699919
1235772690064	-0.14982383	-13.293459	-0.12258313	3.4882183
1235772690103	0.3949901	-14.859799	-0.51757324	5.0674057
1235772690144	-0.040861044	-14.914281	0.6537767	5.1220093
1235772690183	-2.383561	-13.851893	2.6151068	4.4900312
1235772690224	-2.3290794	-13.184497	2.2201166	3.7648087
1235772690264	-2.8738933	-12.408136	3.6774938	3.4502373
1235772690305	-1.8523673	-11.236787	3.0645783	1.9869194
1235772690345	-1.253072	-9.520623	1.8932283	-0.019067764
1235772690385	-0.8580819	-6.306221	2.7649305	-2.867661
1235772690425	-1.0760075	-3.405087	2.2064962	-5.608908
1235772690465	-1.5118586	-2.465283	1.5935807	-6.504706
1235772690505	-2.383561	-2.969236	0.47671217	-5.969336
1235772690545	-3.255263	-7.3549876	-4.8897047	-0.39379787
1235772690585	-2.0566726	-11.250407	-8.417375	4.393834
1235772690625	-3.091819	-10.310603	-9.656827	4.6544075
1235772690664	-1.1849703	-11.972285	-7.9679036	4.623432
1235772690705	-2.4925237	-11.590916	-4.113345	2.7425175
1235772690744	-5.965712	-6.0201936	-0.81722087	-1.2919397
1235772690785	-1.0215261	-9.139254	3.3914666	-0.005042076
1235772690825	-0.095342435	-10.474048	0.13620348	0.66871643
1235772690865	1.2666923	-7.3549876	1.9885708	-2.0830002
1235772690905	2.901134	-9.915613	1.9340894	0.7041378
1235772690945	-0.3677494	-10.079058	-0.81722087	0.31216812
1235772690985	-1.3484144	-7.518432	1.9340894	-1.9271994
1235772691024	-1.3484144	-8.308413	0.92618364	-1.3387251
1235772691065	-0.095342435	-9.861132	1.0351465	0.10912132
1235772691104	-0.040861044	-9.861132	0.58567494	0.07194328
1235772691145	-0.47671217	-11.086963	-0.313268	1.2949772
1235772691185	-0.313268	-12.53072	-0.6401563	2.7443209
1235772691225	0.44947147	-13.919995	-0.92618364	4.1513624
1235772691265	-1.0896279	-14.028958	0.43585113	4.271309
1235772691304	-2.0158114	-14.028958	2.3426998	4.5587044
1235772691345	-1.1985906	-14.09706	3.050958	4.6665
1235772691385	-2.233737	-13.538626	3.6638734	4.3957415
1235772691425	-1.4165162	-11.917805	3.2825038	2.6358337
1235772691465	-1.253072	-9.534244	2.1111538	0.03860092
1235772691505	-1.4709976	-6.4151835	2.3426998	-2.8204741
1235772691545	-1.3075534	-3.3506055	2.2201166	-5.5799294
1235772691585	-1.5799603	-2.73769	1.5527196	-6.28498
1235772691625	-2.1247742	-3.2416427	0.5992953	-5.884652
1235772691665	-2.8875136	-6.578628	-4.099725	-1.5347805
1235772691705	-2.0158114	-11.413852	-7.1234417	3.7978687
1235772691745	-2.7240696	-11.086963	-8.635301	4.5080175
1235772691784	-1.3075534	-12.871228	-9.084772	6.001933
1235772691825	-2.233737	-14.982383	-5.448139	6.2912865
1235772691865	-6.7965536	-8.921328	-3.091819	1.827033
1235772691904	-2.3971813	-10.133538	0.939804	0.64888954
1235772691945	-0.6537767	-12.14935	1.3892754	2.4393377
1235772691985	0.7082581	-8.076866	2.002191	-1.4552336
1235772692024	3.3233647	-9.697687	2.2201166	0.6823349
1235772692065	0.27240697	-10.419566	-0.06810174	0.61669827
1235772692105	-0.6537767	-7.804459	0.939804	-1.9186697
1235772692145	-0.54481393	-7.8589406	0.9942854	-1.8663497
1235772692184	0.16344418	-9.084772	0.8308412	-0.6825018
1235772692225	0.7082581	-9.80665	0.88532263	0.06532097
1235772692265	0.21792556	-10.691973	0.4903325	0.89877796
1235772692305	-0.6537767	-12.026767	-0.013620348	2.2378807
1235772692344	0.92618364	-14.423948	0.38136974	4.652034
1235772692385	-0.6537767	-14.532911	0.313268	4.7443314
1235772692425	-2.1792557	-14.641873	1.9340894	5.122326
1235772692465	-0.43585113	-14.927901	3.1599207	5.458254
1235772692505	-2.1247742	-14.206022	3.2688835	4.924654
1235772692545	-1.6889231	-12.639683	4.3312707	3.6608639
1235772692584	-1.1985906	-9.970095	3.214402	0.73715305
1235772692625	-1.7434045	-6.973618	2.819412	-2.0852585
1235772692665	-1.1985906	-3.5140498	2.9419951	-5.0695095
1235772692705	-1.3075534	-2.6287272	1.7570249	-6.385095
1235772692745	-1.96133	-3.0781987	0.7491191	-6.08062
1235772692785	-3.050958	-6.578628	-3.3233647	-1.8297181
1235772692825	-2.3971813	-10.869038	-6.183638	2.9259787
1235772692865	-2.669588	-9.643207	-7.3005066	2.5794516
1235772692904	-0.5992953	-11.481953	-8.5944395	4.5480976
1235772692945	-1.7978859	-14.09706	-5.1212506	5.2992
1235772692985	-7.014479	-8.975809	-2.4380422	1.8429041
1235772693025	-2.3426998	-10.637491	1.6480621	1.2097273
1235772693065	-1.6889231	-13.70207	2.0430522	4.1494684
1235772693105	0.38136974	-8.798744	2.819412	-0.55935764
1235772693144	3.486809	-10.256122	2.4925237	1.3090391
1235772693184	-0.38136974	-11.250407	-0.3677494	1.4562244
1235772693224	-0.980665	-7.749978	1.5935807	-1.8339863
1235772693265	-1.0351465	-8.131348	0.87170225	-1.5634584
1235772693304	0.16344418	-9.357179	0.81722087	-0.41243076
1235772693344	0.16344418	-9.861132	0.6401563	0.076589584
1235772693385	0.5992953	-10.746454	-0.313268	0.9610596
1235772693424	0.43585113	-12.203832	-0.53119355	2.4165096
1235772693465	0.87170225	-13.811032	-0.81722087	4.055973
1235772693504	-0.16344418	-13.865514	1.0351465	4.0984106
1235772693545	-2.3426998	-13.647589	2.8875136	4.3384075
1235772693585	-2.1792557	-13.593107	3.6638734	4.439251
1235772693625	-3.3233647	-13.484144	4.399372	4.7611694
1235772693665	-2.5606253	-11.808842	2.9964764	2.642624
1235772693705	-2.1792557	-9.41166	1.9885708	0.056559563
1235772693745	-1.9068487	-6.4151835	2.152015	-2.776585
1235772693784	-1.253072	-2.901134	2.152015	-5.9833093
1235772693825	-1.4165162	-2.3563201	1.5390993	-6.6558423
1235772693864	-1.96133	-2.969236	0.3677494	-6.2291627
1235772693905	-2.7240696	-6.742072	-4.399372	-1.3077936
1235772693944	-2.2882185	-10.365085	-7.5320525	3.2088308
1235772693985	-2.3426998	-10.978001	-8.866846	4.4980936
1235772694024	-3.5957718	-14.47843	-10.106298	8.212555
1235772694067	-3.214402	-12.476238	-5.7886477	4.3177023
1235772694105	-8.158588	-7.913422	-3.5549107	2.1022625
1235772694144	-3.8681788	-11.032481	1.3211738	1.9587202
1235772694185	0.16344418	-10.256122	1.6480621	0.58232784
1235772694225	-0.38136974	-8.921328	1.9340894	-0.6701174
1235772694265	3.4323275	-11.086963	2.6014864	2.0874386
1235772694304	-0.10896278	-9.193735	-0.58567494	-0.5936346
1235772694345	-0.92618364	-7.4639506	1.6480621	-2.1070085
1235772694385	0.0	-8.798744	1.253072	-0.91912556
1235772694424	0.5992953	-9.41166	0.7491191	-0.34622288
1235772694465	1.0351465	-9.970095	1.1441092	0.2821207
1235772694505	0.4903325	-11.141444	0.13620348	1.3464108
1235772694544	-0.10896278	-12.421757	-0.42223078	2.622758
1235772694584	1.1441092	-14.696355	0.08172209	4.9343987
1235772694625	-0.16344418	-14.764457	1.4301366	5.027809
1235772694665	-1.253072	-14.47843	2.819412	4.996869
1235772694705	-0.4903325	-14.778077	3.9362805	5.4945364
1235772694744	-2.070293	-13.770171	4.944186	4.9699774
1235772694785	-2.2882185	-11.713499	3.7047346	2.690031
1235772694825	-1.96133	-9.2073555	2.982856	0.06855297
1235772694865	-1.7434045	-5.6524444	2.7513103	-3.2829018
1235772694905	-1.1441092	-2.5333846	2.0294318	-6.364904
1235772694944	-0.7082581	-1.920469	1.3620348	-7.347998
1235772694984	-1.6889231	-2.4789033	-0.14982383	-6.80334
1235772695025	-2.8330324	-8.648921	-5.802268	0.9866915
1235772695065	-2.5606253	-11.659018	-7.872561	4.4925356
1235772695105	-1.96133	-12.162971	-10.623871	6.4614563
1235772695148	-2.5606253	-17.447666	-7.2596455	9.263754
1235772695185	-6.033814	-11.822462	-1.2122109	3.5217772
1235772695225	-2.9964764	-7.477571	3.255263	-1.1181707
1235772695265	-0.92618364	-12.380896	6.2789803	4.1062927
1235772695305	1.1985906	-7.872561	3.3778462	-1.1565819
1235772695345	3.8136973	-7.3141265	2.587866	-1.1615486
1235772695385	0.21792556	-10.651112	-0.27240697	0.850173
1235772695425	-0.43585113	-7.6546354	-0.20430522	-2.1368947
1235772695465	-1.1985906	-7.096201	0.6810174	-2.5777864
1235772695505	-0.7082581	-9.152874	1.0215261	-0.56975365
1235772695545	0.16344418	-10.038197	0.6810174	0.25594807
1235772695585	0.10896278	-11.264028	-0.095342435	1.4583082
1235772695624	-0.16344418	-13.375181	-0.43585113	3.5766296
1235772695665	0.5992953	-14.709975	-0.88532263	4.9421244
1235772695705	-0.16344418	-13.770171	1.5799603	4.0548296
1235772695745	-1.253072	-13.443283	2.8057916	3.983365
1235772695785	-0.92618364	-14.941522	3.486809	5.5642548
1235772695825	-1.3075534	-13.661209	5.1621118	4.8557415
1235772695865	-1.0896279	-12.54434	3.990762	3.4022083
1235772695904	-1.0896279	-9.602345	4.0452433	0.66981506
1235772695945	-0.43585113	-4.535576	4.263169	-3.5667763
1235772695985	-0.6537767	-2.315459	3.0373375	-5.931835
1235772696025	-1.253072	-1.7570249	1.7978859	-6.9977856
1235772696065	-3.214402	-4.195067	-2.2745981	-4.052976
1235772696105	-2.9964764	-10.705593	-6.6467295	3.1458635
1235772696145	-3.2688835	-10.433187	-8.60806	4.108654
1235772696185	-2.7240696	-13.443283	-9.615966	6.944744
1235772696225	-2.8875136	-16.998194	-5.407278	8.263075
1235772696265	-9.956474	-10.54215	-1.2122109	4.744561
1235772696305	-4.8488436	-12.217452	4.7126403	4.1571026
1235772696345	-2.1247742	-14.655494	4.4947147	5.669157
1235772696384	-0.10896278	-9.425281	4.2086873	0.516181
1235772696425	4.2495484	-9.983715	3.255263	1.5216322
1235772696465	-0.32688835	-10.760075	-1.1577295	1.020464
1235772696504	-1.3620348	-7.368608	1.3620348	-2.1904397
1235772696545	-1.1441092	-7.981524	0.626536	-1.7192364
1235772696585	0.4903325	-9.602345	1.0215261	-0.13768005
1235772696625	0.6537767	-9.983715	0.8580819	0.23517704
1235772696665	0.32688835	-11.209546	-0.20430522	1.409522
1235772696705	-0.7082581	-12.217452	-0.6537767	2.4487648
1235772696745	-0.43585113	-13.3207	-0.43585113	3.5283031
1235772696784	-0.92618364	-13.211738	1.3620348	3.5073643
1235772696824	-2.0158114	-12.707785	2.4244218	3.2864437
1235772696865	-1.3620348	-13.988097	3.5821514	4.696929
1235772696905	-2.0158114	-13.375181	4.031623	4.3076315
1235772696945	-2.3563201	-11.985906	3.1463003	2.8073654
1235772696984	-2.5742457	-9.370799	2.7513103	0.29326725
1235772697025	-1.920469	-5.3119354	2.4789033	-3.6381965
1235772697065	-1.1032481	-2.6968288	2.3018389	-6.093363
1235772697104	-0.88532263	-1.7025435	1.7434045	-7.2139854
1235772697145	-1.5390993	-2.6423476	-0.20430522	-6.7419205
1235772697185	-2.465283	-8.989429	-5.3527966	0.9422989
1235772697225	-1.9749504	-10.882658	-6.9872384	3.27594
1235772697265	-1.2122109	-11.495573	-9.833891	5.369748
1235772697309	-0.939804	-16.603205	-4.5219555	7.4269714
1235772697344	-4.4810944	-10.54215	1.6344417	1.7643709
1235772697385	-3.8273177	-5.47538	4.658159	-1.6625366
1235772697425	-1.1032481	-11.318509	8.458236	4.366125
1235772697465	0.095342435	-7.096201	3.4323275	-1.9233747
1235772697505	2.547005	-6.7556925	2.1383946	-2.276753
1235772697544	0.58567494	-11.550055	0.29964766	1.762125
1235772697584	-0.9942854	-7.8180795	-0.4903325	-1.9103603
1235772697625	-1.2666923	-7.096201	0.7354988	-2.5608559
1235772697665	-0.3405087	-9.0983925	0.626536	-0.680356
1235772697705	0.20430522	-9.874752	1.2394516	0.14768124
1235772697745	0.53119355	-10.433187	0.9670447	0.68471336
1235772697784	0.095342435	-12.040387	0.29964766	2.2378426
1235772697825	1.2394516	-14.383087	0.013620348	4.6297493
1235772697864	0.313268	-14.49205	0.51757324	4.698023
1235772697905	-1.7570249	-13.933616	1.7434045	4.345108
1235772697944	-0.9942854	-14.110681	3.4323275	4.7494755
1235772697985	-2.3018389	-14.274124	3.7047346	5.11897
1235772698024	-2.083913	-13.3207	3.6502533	4.16146
1235772698065	-1.9068487	-11.046102	3.0781987	1.8177948
1235772698104	-2.233737	-8.21307	2.465283	-0.94540215
1235772698145	-1.525479	-3.92266	2.8602731	-4.717887
1235772698184	-1.4709976	-2.6968288	1.9068487	-6.1910186
1235772698225	-1.525479	-2.8602731	1.1168685	-6.378
1235772698265	-2.7240696	-4.69902	-2.1247742	-3.9743257
1235772698305	-1.8523673	-9.983715	-5.992953	1.9840803
1235772698345	-1.5799603	-10.8281765	-7.000859	3.1840277
1235772698385	-2.669588	-14.165162	-8.785124	7.0740166
1235772698424	-1.96133	-16.998194	-6.0474343	8.341541
1235772698465	-7.504812	-10.3242235	-2.1247742	3.1326876
1235772698505	-3.2688835	-11.264028	2.233737	2.132927
1235772698545	0.5992953	-12.762266	2.9147544	3.297944
1235772698585	0.87170225	-8.989429	3.3642259	-0.16882229
1235772698625	4.140586	-10.991621	2.969236	2.308487
1235772698665	0.10896278	-10.705593	-0.61291564	0.9170275
1235772698705	-1.0896279	-7.600154	1.1168685	-2.047976
1235772698745	-0.7082581	-7.9270425	0.89894295	-1.7974224
1235772698784	0.32688835	-9.0983925	0.61291564	-0.6817789
1235772698825	0.38136974	-9.656827	1.0079057	-0.08987999
1235772698865	1.0351465	-10.59663	0.3949901	0.847744
1235772698905	0.27240697	-11.985906	-0.44947147	2.190773
1235772698945	1.6344417	-14.328606	-0.05448139	4.614977
1235772698985	0.87170225	-15.26841	-1.3484144	5.545953
1235772699025	-1.9749504	-14.328606	0.9670447	4.6897135
1235772699064	-1.5935807	-14.546532	2.3018389	5.0068417
1235772699105	-3.0645783	-14.778077	2.4244218	5.4793243
1235772699144	-2.5742457	-13.443283	4.5491962	4.617073
1235772699184	-2.0294318	-11.767981	2.8738933	2.4759884
1235772699225	-1.9749504	-8.880466	2.982856	-0.23269844
1235772699265	-1.2122109	-4.2495484	3.3097446	-4.2855515
1235772699305	-1.2666923	-2.3699405	2.4244218	-6.187403
1235772699345	-1.3756552	-2.4244218	1.6344417	-6.5752964
1235772699385	-2.6832085	-5.1484914	-2.506144	-3.4830966
1235772699424	-2.465283	-10.378705	-6.142777	2.5030556
1235772699465	-2.1383946	-10.59663	-7.477571	3.3377542
1235772699505	-1.920469	-12.598822	-9.166494	5.891856
1235772699545	-2.0294318	-15.554437	-3.568531	6.280411
1235772699585	-5.8839903	-11.155065	0.40861043	2.81174
1235772699624	-3.1190596	-10.59663	4.1542063	1.994813
1235772699665	-0.17706452	-13.497765	5.7205462	4.854375
1235772699705	1.5118586	-9.2073555	3.255263	0.07554817
1235772699744	3.4187074	-9.0983925	2.4789033	0.2239666
1235772699785	0.3677494	-10.882658	0.12258313	1.0829096
1235772699824	-0.7218784	-7.9270425	1.1304889	-1.7669287
1235772699865	-0.7763598	-7.981524	1.2394516	-1.6922369
1235772699905	-0.12258313	-9.0983925	1.0215261	-0.65027046
1235772700008	0.6946377	-10.433187	0.5720546	0.66527176
1235772700008	0.3677494	-11.100583	0.06810174	1.3002319
1235772700035	-0.7763598	-12.489859	-0.38136974	2.7131243
1235772700075	1.1849703	-14.88704	-0.32688835	5.131053
1235772700115	0.095342435	-14.709975	1.525479	4.98252
1235772700155	-1.3211738	-14.546532	2.3563201	4.988597
1235772700197	-0.2860273	-15.050485	3.7455957	5.705551
1235772700238	-2.4108016	-13.824653	4.4947147	4.9288664
1235772700275	-2.4108016	-12.040387	3.4323275	2.9433985
1235772700315	-2.2473574	-9.2073555	2.969236	0.12523651
1235772700355	-1.9749504	-5.706926	2.6287272	-3.2203279
1235772700395	-0.9942854	-2.8057916	2.3563201	-6.0101633
1235772700435	-0.88532263	-2.192876	1.7297841	-6.876692
1235772700475	-1.3756552	-2.6968288	0.55843425	-6.7281504
1235772700515	-2.3563201	-6.26536	-4.9850473	-1.4605331
1235772700555	-1.8115063	-10.882658	-8.281172	3.9879723
1235772700595	-2.083913	-10.269742	-9.79303	4.5360737
1235772700635	-1.0487667	-13.606728	-9.00305	6.542597
1235772700675	-1.8659877	-12.93933	-3.800077	3.8076344
1235772700714	-6.7556925	-5.9793324	-1.0079057	-0.72878265
1235772700755	-1.484618	-9.983715	4.4810944	1.2368488
1235772700795	-0.3949901	-9.820271	1.7297841	0.17262173
1235772700834	0.3677494	-7.477571	2.233737	-1.9939113
1235772700875	2.982856	-10.651112	2.1792557	1.4668922
1235772700915	-1.0487667	-9.152874	-1.6208214	-0.45239544
1235772700955	-0.8308412	-7.1506824	1.6753027	-2.4154935
1235772700995	-0.3405087	-8.539958	1.1168685	-1.1872406
1235772701035	0.6946377	-9.929234	0.89894295	0.18736267
1235772701075	0.7491191	-10.3242235	0.61291564	0.56284523
1235772701114	-0.013620348	-11.659018	-0.3405087	1.8573465
1235772701155	0.47671217	-13.606728	-0.61291564	3.822215
1235772701195	0.040861044	-14.383087	-1.1713499	4.624113
1235772701235	-1.1577295	-14.110681	1.6208214	4.443918
1235772701275	-1.7570249	-14.328606	2.233737	4.801076
1235772701315	-3.173541	-15.050485	2.6832085	5.807063
1235772701355	-2.6287272	-13.770171	4.930566	5.053979
1235772701394	-1.9749504	-11.985906	2.7921712	2.6576424
1235772701435	-2.083913	-8.539958	3.13268	-0.47459412
1235772701475	-0.7218784	-3.255263	3.5821514	-4.9128118
1235772701514	-0.7218784	-1.253072	2.5197644	-6.9013944
1235772701554	-0.939804	-1.3620348	1.56634	-7.5281
1235772701595	-2.465283	-4.9850473	-2.9147544	-3.5277882
1235772701635	-1.8115063	-11.046102	-6.769313	3.2746916
1235772701675	-2.3563201	-11.550055	-8.676162	4.8300085
1235772701715	-2.0294318	-14.328606	-9.234595	7.3603325
1235772701755	-2.3018389	-15.6634	-5.597963	6.9855423
1235772701795	-8.989429	-9.261836	-2.1247742	3.274104
1235772701835	-3.1190596	-11.046102	3.4731886	2.1853437
1235772701875	-1.0487667	-12.993812	2.4108016	3.4504623
1235772701915	0.47671217	-9.0983925	3.2961242	-0.117871284
1235772701954	4.072484	-10.882658	2.8602731	2.1599083
1235772701995	-0.9942854	-10.991621	-1.1168685	1.2862186
1235772702035	-1.7570249	-7.763598	1.4573772	-1.7143984
1235772702075	-1.3211738	-8.144968	1.0623871	-1.487114
1235772702114	0.3677494	-9.2073555	0.84446156	-0.55333996
1235772702155	0.9670447	-9.820271	0.7218784	0.08748913
1235772702195	0.6401563	-11.155065	-0.10896278	1.3672991
1235772702235	-0.17706452	-12.598822	-0.89894295	2.8254423
1235772702275	0.42223078	-14.110681	-1.0623871	4.3502655
1235772702314	-1.2122109	-13.715691	0.89894295	3.9918175
1235772702354	-1.920469	-13.497765	2.465283	4.048149
1235772702395	-1.0487667	-14.49205	3.1463003	5.0600452
1235772702435	-2.2473574	-13.715691	5.053149	4.982031
1235772702475	-1.7570249	-12.162971	3.92266	3.0934372
1235772702514	-2.083913	-9.547864	3.13268	0.4558096
1235772702555	-2.2473574	-5.597963	3.6911142	-2.734725
1235772702595	-1.5935807	-2.7513103	2.6287272	-5.681191
1235772702635	-1.1032481	-2.0294318	1.8523673	-6.8457355
1235772702675	-1.7025435	-2.7513103	0.3949901	-6.547144
1235772702715	-2.4108016	-8.880466	-5.761407	1.0500736
1235772702755	-2.083913	-11.985906	-8.444615	5.002677
1235772702794	-3.173541	-11.427472	-10.296983	5.899602
1235772702834	-1.0487667	-13.443283	-7.8317	5.786852
1235772702875	-1.5935807	-9.656827	-1.8523673	0.15452862
1235772702915	-3.445948	-4.195067	0.7899802	-4.3205576
1235772702955	1.5118586	-8.812365	5.434519	0.65649796
1235772702995	1.7842655	-8.430995	1.7297841	-1.0170298
1235772703034	2.002191	-6.4832854	1.9068487	-2.7584
1235772703075	2.4925237	-10.038197	1.2803127	0.61531067
1235772703115	-0.17706452	-8.7034025	-1.2803127	-1.0078001
1235772703155	-1.1032481	-7.2596455	1.4573772	-2.3204255
1235772703194	-0.55843425	-8.7034025	0.2860273	-1.0806618
1235772703235	-0.013620348	-9.602345	1.4573772	-0.094329834
1235772703276	-0.12258313	-9.152874	0.89894295	-0.60892105
1235772703314	-0.12258313	-10.54215	0.3949901	0.7436085
1235772703360	-0.7763598	-11.155065	0.667397	1.395297
1235772703395	0.53119355	-12.762266	-0.84446156	2.9945498
1235772703440	-1.2803127	-13.211738	1.1304889	3.5150328
1235772703475	-2.6423476	-13.443283	1.9749504	4.03547
1235772703515	-1.4301366	-13.72931	3.13268	4.3479586
1235772703555	-2.901134	-14.001718	3.800077	4.988797
1235772703595	-2.5333846	-12.843987	3.2007818	3.6704063
1235772703635	-2.2064962	-10.337844	2.9283748	1.1621704
1235772703676	-2.152015	-7.8861814	2.5197644	-1.252573
1235772703728	-1.334794	-4.1542063	2.8602731	-4.5893455
1235772703764	-1.334794	-2.9283748	1.7842655	-6.1268873
1235772703805	-1.9340894	-3.3233647	0.50395286	-5.9285808
1235772703849	-3.0237172	-6.7148314	-4.7535014	-1.0415144
1235772703885	-2.8602731	-9.888372	-7.504812	2.932395
1235772703925	-3.2416427	-9.438901	-8.839605	3.5252562
1235772703964	-2.315459	-10.841797	-8.730643	4.304694
1235772704005	-3.4595683	-12.9529505	-4.140586	4.225171
1235772704044	-6.7148314	-9.112013	-1.1168685	1.5672293
1235772704085	-2.8602731	-10.174399	3.3642259	1.2846785
1235772704125	-0.7354988	-12.5579605	2.8602731	3.0939121
1235772704165	1.0623871	-7.8861814	3.0237172	-1.2941074
1235772704204	2.8057916	-9.220976	2.4108016	0.12868214
1235772704245	-0.027240695	-10.501288	-0.50395286	0.7067585
1235772704285	-0.626536	-7.8861814	1.0623871	-1.8246036
1235772704324	-0.626536	-8.390134	0.89894295	-1.3452673
1235772704365	-0.13620348	-9.384419	1.0623871	-0.36130428
1235772704405	0.13620348	-9.438901	1.0079057	-0.3131113
1235772704445	0.35412905	-10.174399	0.667397	0.39576244
1235772704485	-0.40861043	-11.618156	0.0	1.8186893
1235772704524	1.7161638	-13.892755	-0.05448139	4.1918077
1235772704565	0.08172209	-14.669114	0.89894295	4.89021
1235772704605	-2.2609777	-14.9006605	1.96133	5.391656
1235772704645	-0.84446156	-14.614634	3.92266	5.3488073
1235772704684	-2.6968288	-14.505671	3.9771416	5.474221
1235772704724	-2.152015	-13.007432	3.9771416	3.9644098
1235772704765	-1.8251266	-10.501288	3.3642259	1.3703871
1235772704805	-2.0975335	-7.995144	2.6832085	-1.1163349
1235772704845	-1.1168685	-4.0452433	2.9147544	-4.6971316
1235772704885	-0.95342433	-2.7104492	1.96133	-6.3278046
1235772704924	-1.4437568	-2.7104492	1.1713499	-6.519854
1235772704965	-2.6423476	-5.1621118	-2.4108016	-3.5264144
1235772705019	-1.8251266	-10.7192135	-6.26536	2.7427464
1235772705055	-1.9885708	-10.337844	-7.7227373	3.2496166
1235772705095	-0.84446156	-13.456903	-9.507003	6.6913643
1235772705135	-1.2258313	-15.28203	-6.605869	6.8870792
1235772705175	-8.785124	-8.717023	-3.3642259	3.0184393
1235772705214	-3.405087	-11.277648	1.96133	2.135995
1235772705255	-1.1168685	-12.4489975	2.1792557	2.880906
1235772705295	-0.08172209	-8.662541	2.969236	-0.64899445
1235772705335	4.862464	-10.61025	3.2961242	2.321228
1235772705374	-0.08172209	-10.283362	-0.7218784	0.5023422
1235772705414	-1.607201	-7.4911914	1.56634	-1.9865184
1235772705455	-0.6810174	-8.335652	0.95342433	-1.3890553
1235772705494	0.13620348	-9.275456	0.667397	-0.50621605
1235772705535	0.7354988	-9.507003	1.2258313	-0.1927681
1235772705575	0.84446156	-10.283362	0.89894295	0.55041313
1235772705615	-0.19068487	-11.4410925	0.3405087	1.6410961
1235772705654	1.0623871	-13.456903	0.61291564	3.7060328
1235772705695	0.24516626	-14.124301	-1.0623871	4.3596706
1235772705735	-2.2064962	-13.116395	1.2803127	3.555522
1235772705775	-1.879608	-13.33432	2.3699405	3.8664494
1235772705815	-2.5333846	-13.388802	2.192876	3.9950428
1235772705855	-2.315459	-12.9529505	4.440233	4.0806084
1235772705895	-1.4982382	-12.054008	2.3018389	2.5562897
1235772705935	-1.5527196	-9.507003	2.3699405	0.11356449
1235772705975	-1.1713499	-5.4890003	3.0373375	-3.42491
1235772706015	-1.3892754	-3.1054392	2.3699405	-5.6605124
1235772706055	-1.6616824	-2.4380422	1.7434045	-6.3795967
1235772706095	-2.4244218	-3.718355	-0.5992953	-5.327461
1235772706134	-2.9147544	-10.106298	-5.638824	2.1277285
1235772706175	-2.2064962	-11.618156	-7.5456724	4.2214413
1235772706215	-2.0975335	-10.896278	-9.438901	4.7611694
1235772706255	0.19068487	-13.388802	-4.1814466	4.2212105
1235772706295	-1.2803127	-9.561484	-0.32688835	-0.15429115
1235772706335	-3.7864566	-4.6036777	1.6344417	-3.625833
1235772706375	-0.08172209	-9.888372	7.572913	2.648694
1235772706415	-0.6810174	-8.499097	1.525479	-1.1449232
1235772706455	-0.13620348	-6.4424243	2.4244218	-2.9217973
1235772706495	1.1713499	-10.841797	2.192876	1.3165388
1235772706535	-1.1713499	-8.662541	-1.334794	-0.9639492
1235772706574	-1.1168685	-7.327747	1.7434045	-2.1920114
1235772706615	-0.24516626	-9.057531	0.8036005	-0.7102356
1235772706655	0.35412905	-10.283362	1.2394516	0.55718994
1235772706695	0.7354988	-9.888372	0.40861043	0.117453575
1235772706735	0.08172209	-11.386611	-0.54481393	1.5932808
1235772706774	-0.08172209	-12.054008	-0.43585113	2.2555122
1235772706815	0.51757324	-12.721405	-1.8523673	3.0593243
1235772706855	-1.7706453	-12.340035	1.0623871	2.704957
1235772706895	-1.9885708	-12.5579605	2.3018389	3.1144657
1235772706935	-1.2258313	-13.456903	3.1463003	4.0674305
1235772706974	-2.315459	-13.279839	4.7126403	4.4735613
1235772707015	-1.9885708	-12.176591	2.8057916	2.846264
1235772707055	-2.0975335	-9.438901	2.587866	0.20282269
1235772707095	-1.9885708	-5.6660647	2.7513103	-3.2014694
1235772707135	-1.2803127	-2.819412	2.3699405	-5.907304
1235772707175	-1.0623871	-2.2064962	1.7434045	-6.8005314
1235772707214	-1.879608	-3.1599207	-0.040861044	-6.1297364
1235772707255	-2.6968288	-8.553578	-5.638824	0.78735447
1235772707295	-2.315459	-11.059722	-7.9270425	3.996132
1235772707335	-2.2609777	-10.174399	-9.670447	4.4112253
1235772707374	-0.19068487	-11.4410925	-8.4854765	4.4389896
1235772707415	-1.334794	-10.446807	-4.344891	1.586134
1235772707454	-5.679685	-6.66035	-2.901134	-0.5851717
1235772707495	-1.334794	-9.507003	2.4789033	0.10847664
1235772707535	-0.626536	-11.3321295	0.29964766	1.5467405
1235772707575	0.51757324	-7.8861814	1.7978859	-1.701582
1235772707615	3.3506055	-10.174399	2.192876	1.1274099
1235772707654	-0.24516626	-10.228881	-1.334794	0.51186657
1235772707695	-1.0623871	-7.3822284	1.6344417	-2.1713796
1235772707735	-0.84446156	-8.22669	0.7354988	-1.5040894
1235772707775	-0.027240695	-9.384419	0.8580819	-0.3830433
1235772707815	0.08172209	-9.724928	0.40861043	-0.07279873
1235772707854	-0.13620348	-11.005241	-0.6537767	1.2188349
1235772707895	-0.7354988	-12.285554	-0.43585113	2.5086145
1235772707935	0.40861043	-14.001718	-0.667397	4.216918
1235772707979	-1.3892754	-14.451189	0.7218784	4.729101
1235772708015	-2.819412	-14.396708	2.1383946	5.018565
1235772708055	-2.1111538	-14.614634	2.6423476	5.194232
1235772708095	-3.3642259	-14.505671	3.2961242	5.444478
1235772708135	-2.383561	-12.9529505	3.0781987	3.7187185
1235772708175	-2.2201166	-10.773695	2.587866	1.4937248
1235772708215	-1.8932283	-7.668256	2.8057916	-1.4245901
1235772708254	-1.1849703	-3.8273177	2.8057916	-4.9153333
1235772708294	-1.6753027	-2.6014864	2.083913	-6.076092
1235772708334	-2.1111538	-2.6559677	1.3075534	-6.1706038
1235772708375	-3.091819	-5.6660647	-3.173541	-2.613946
1235772708414	-2.4925237	-10.773695	-6.810174	3.1804066
1235772708455	-2.7649305	-10.446807	-8.104107	3.7010202
1235772708495	-1.8932283	-12.898469	-8.104107	5.543639
1235772708535	-1.7842655	-12.843987	-2.9556155	3.493248
1235772708575	-7.43671	-6.3879433	-0.095342435	-0.0025920868
1235772708614	-2.7104492	-9.438901	4.8760843	1.1576366
1235772708655	-0.58567494	-10.392325	3.091819	1.0516548
1235772708695	-0.47671217	-7.995144	2.3699405	-1.4540339
1235772708735	3.3914666	-10.228881	2.587866	1.2761793
1235772708774	0.3405087	-9.670447	-1.1032481	-0.06752014
1235772708815	-0.42223078	-7.4911914	1.525479	-2.150064
1235772708855	-0.040861044	-8.771504	0.5720546	-1.0164165
1235772708895	0.44947147	-9.438901	0.9670447	-0.30770016
1235772708935	0.12258313	-9.724928	1.1304889	-0.015467644
1235772708975	0.013620348	-10.773695	0.40861043	0.97479916
1235772709014	-0.6946377	-11.9450445	0.35412905	2.1638145
1235772709055	0.9942854	-14.614634	0.21792556	4.8433876
1235772709095	-0.3677494	-14.7916975	-0.44947147	4.9964437
1235772709135	-2.3971813	-14.451189	1.4165162	4.910342
1235772709175	-1.525479	-14.233263	2.4789033	4.721179
1235772709215	-3.214402	-14.137921	2.465283	4.900179
1235772709255	-2.6151068	-12.966571	3.92266	3.9903793
1235772709295	-2.4516625	-11.127824	2.6968288	1.902833
1235772709335	-2.506144	-8.458236	2.5333846	-0.62838554
1235772709375	-1.6344417	-4.167826	2.7513103	-4.551949
1235772709415	-1.4709976	-2.669588	1.7978859	-6.267875
1235772709454	-1.3620348	-2.506144	0.9125633	-6.8118763
1235772709495	-2.0158114	-4.780742	-2.5606253	-4.0208235
1235772709535	-1.8523673	-10.732834	-6.0882955	2.6710234
1235772709575	-1.525479	-11.073342	-6.864655	3.310876
1235772709614	-1.6344417	-13.075534	-8.934948	6.1142254
1235772709655	-2.506144	-16.916471	-5.1893525	8.064476
1235772709695	-7.6137743	-10.909899	-1.9477097	3.6391306
1235772709734	-3.8681788	-11.577295	2.7513103	2.7059946
1235772709775	-0.980665	-14.805318	4.2086873	5.616455
1235772709814	0.7082581	-9.901993	3.881799	0.85259247
1235772709854	4.195067	-10.787315	3.5957718	2.3133469
1235772709895	0.21792556	-11.34575	-0.27240697	1.5444613
1235772709935	-0.81722087	-7.7908387	1.1304889	-1.8919158
1235772709974	-0.54481393	-7.7908387	0.7354988	-1.9622288
1235772710017	0.16344418	-8.921328	0.8036005	-0.84771156
1235772710057	-0.05448139	-9.697687	0.8036005	-0.075572014
1235772710095	0.5992953	-10.460427	0.51757324	0.6837063
1235772710135	-0.4903325	-12.244693	-0.14982383	2.4487724
1235772710175	0.6537767	-14.628253	-0.20430522	4.8376303
1235772710214	0.6537767	-15.2956505	-1.4982382	5.5761023
1235772710255	-2.5606253	-14.464809	0.9125633	4.911376
1235772710295	-2.070293	-14.246883	2.083913	4.739913
1235772710334	-3.1054392	-14.519291	2.5333846	5.2556076
1235772710375	-2.5606253	-13.34794	4.944186	4.6560364
1235772710417	-1.6889231	-11.985906	2.8738933	2.6341562
1235772710457	-1.525479	-9.193735	2.8738933	-0.054157257
1235772710495	-0.87170225	-4.344891	3.1463003	-4.3718414
1235772710535	-1.5799603	-2.3971813	2.2473574	-6.160643
1235772710574	-1.6344417	-2.002191	1.6344417	-6.7486167
1235772710614	-2.4516625	-3.8954194	-1.1032481	-5.073565
1235772710655	-2.506144	-10.514909	-6.142777	2.6262808
1235772710695	-1.6889231	-11.127824	-7.04172	3.4698982
1235772710735	-1.9068487	-11.904184	-8.662541	5.0387297
1235772710776	-1.4709976	-16.140112	-5.911231	7.4447174
1235772710815	-4.2495484	-9.452521	-0.14982383	0.5582552
1235772710855	-3.4323275	-7.2324047	2.083913	-1.5343323
1235772710895	-0.5992953	-11.958665	3.5412905	2.6797247
1235772710935	0.21792556	-7.0689607	2.982856	-2.131031
1235772710974	1.7434045	-8.117727	1.5799603	-1.3548317
1235772711015	0.7082581	-11.291268	0.17706452	1.5081949
1235772711055	-0.10896278	-7.681876	1.1304889	-2.0412722
1235772711095	0.0	-8.063246	1.3620348	-1.6291771
1235772711135	0.92618364	-9.452521	0.9670447	-0.259758
1235772711175	0.7627395	-9.738548	1.1849703	0.03333187
1235772711214	0.5992953	-10.460427	0.013620348	0.67093945
1235772711255	-0.16344418	-11.468333	-0.6537767	1.6814661
1235772711295	0.21792556	-13.021052	-0.16344418	3.2172508
1235772711335	-0.38136974	-14.015338	-0.95342433	4.246256
1235772711375	-2.6287272	-13.470524	1.0760075	3.9600859
1235772711415	-2.9556155	-13.906375	2.4244218	4.6155806
1235772711458	-3.9362805	-14.601013	2.465283	5.515279
1235772711497	-3.7728362	-13.375181	3.8681788	4.618765
1235772711535	-3.173541	-11.577295	2.8057916	2.5212698
1235772711575	-2.5742457	-8.62168	2.5333846	-0.45902252
1235772711615	-1.8115063	-3.8954194	2.8738933	-4.6379843
1235772711655	-1.2666923	-1.9477097	1.920469	-6.792304
1235772711695	-0.8308412	-2.0566726	0.9670447	-7.386862
1235772711734	-1.0487667	-4.5628166	-2.7240696	-4.390031
1235772711774	-1.4301366	-10.678352	-7.1506824	3.1241179
1235772711817	-1.6480621	-12.626062	-8.880466	5.7174034
1235772711857	-2.9556155	-15.159447	-8.553578	7.84861
1235772711898	-3.9362805	-15.431854	-6.8237944	7.5196476
1235772711935	-5.2302136	-9.847511	-0.8308412	1.3745356
1235772711975	-4.0452433	-9.071152	2.083913	0.34187126
1235772712015	-0.667397	-10.065437	2.3699405	0.5555439
1235772712055	0.58567494	-8.512717	3.4323275	-0.609355
1235772712095	0.9670447	-9.125633	1.2394516	-0.5465965
1235772712135	0.14982383	-9.847511	-0.095342435	0.04246235
1235772712175	-0.06810174	-8.117727	0.06810174	-1.6883516
1235772712215	0.6401563	-8.403754	0.46309182	-1.3658361
1235772712255	1.56634	-9.575105	0.12258313	-0.10350227
1235772712295	0.8580819	-9.847511	0.5720546	0.09471512
1235772712334	-0.55843425	-9.847511	0.35412905	0.06303787
1235772712374	-0.23154591	-10.855417	0.17706452	1.0526791
1235772712415	-0.2860273	-12.190211	0.5720546	2.4003277
1235772712454	0.47671217	-13.525005	-0.43585113	3.7337704
1235772712495	-1.4301366	-13.470524	0.10896278	3.740016
1235772712534	-3.8273177	-13.34794	1.9068487	4.2094812
1235772712575	-3.7864566	-13.74293	1.7434045	4.554577
1235772712615	-4.7126403	-13.021052	3.5412905	4.486619
1235772712655	-3.5140498	-11.413852	3.2416427	2.5680342
1235772712695	-2.315459	-9.248216	1.96133	-0.073322296
1235772712735	-1.7706453	-5.3527966	2.8602731	-3.4845634
1235772712775	-1.1713499	-2.465283	2.070293	-6.3808956
1235772712815	-1.0623871	-1.7434045	1.6208214	-7.199892
1235772712855	-1.1168685	-3.0237172	-0.667397	-6.5148907
1235772712895	-2.2064962	-9.534244	-6.0474343	1.6973438
1235772712935	-1.8251266	-11.808842	-8.008764	4.5780687
1235772712975	-3.1871614	-12.53072	-9.684067	6.3475475
1235772713019	-3.405087	-14.532911	-6.932757	6.6512737
1235772713055	-2.152015	-8.362893	1.1168685	-1.0993805
1235772713095	-3.7864566	-5.6933055	3.13268	-2.2857018
1235772713135	0.40861043	-9.970095	5.366417	1.5233183
1235772713175	1.1713499	-8.022385	3.6911142	-0.8985052
1235772713215	-0.19068487	-8.689782	0.3949901	-1.1058064
1235772713257	1.3892754	-11.032481	0.2860273	1.316638
1235772713297	-0.24516626	-8.19945	-0.10896278	-1.6028128
1235772713335	0.5720546	-8.362893	1.0623871	-1.3571596
1235772713374	1.9885708	-9.41166	0.7218784	-0.1601553
1235772713415	1.2258313	-9.697687	0.55843425	-0.01585579
1235772713454	0.40861043	-10.024576	0.7218784	0.25218678
1235772713497	-0.51757324	-10.474048	0.44947147	0.689806
1235772713538	-1.4437568	-10.978001	0.06810174	1.2660894
1235772713575	-0.40861043	-12.585201	-0.8308412	2.812563
1235772713615	-1.6616824	-11.863323	0.61291564	2.1881523
1235772713655	-3.0237172	-12.748646	1.56634	3.3889647
1235772713695	-2.5333846	-13.919995	3.0373375	4.6643457
1235772713734	-3.5140498	-13.538626	3.6502533	4.6490507
1235772713775	-2.9147544	-12.585201	2.5197644	3.3551235
1235772713814	-2.0430522	-9.697687	1.96133	0.29612255
1235772713855	-1.8251266	-6.238119	1.6208214	-3.1079726
1235772713895	-0.95342433	-3.173541	1.9068487	-5.9835033
1235772713935	-0.51757324	-2.2745981	1.1713499	-7.1963363
1235772713975	-0.95342433	-3.0100968	-0.50395286	-6.6092033
1235772714017	-1.879608	-6.238119	-4.4810944	-1.8992319
1235772714057	-2.4789033	-10.365085	-6.782933	2.826169
1235772714105	-3.3506055	-10.18802	-7.8317	3.4733276
1235772714144	-2.587866	-12.190211	-8.008764	5.00681
1235772714184	-2.8602731	-13.470524	-4.9850473	4.8387203
1235772714224	-6.8237944	-9.071152	-3.8545585	2.18116
1235772714265	-2.2609777	-11.400231	0.21792556	1.817668
1235772714305	-0.7354988	-12.067628	0.16344418	2.2844753
1235772714344	0.13620348	-8.676162	1.2803127	-1.0354738
1235772714384	3.568531	-10.18802	2.5197644	1.2784462
1235772714424	-0.24516626	-9.520623	-0.21792556	-0.28037834
1235772714465	-1.0079057	-7.8998017	1.9068487	-1.6177053
1235772714505	-0.24516626	-8.785124	1.5118586	-0.8890152
1235772714545	0.626536	-9.520623	0.667397	-0.24211979
1235772714584	1.0079057	-10.065437	1.2803127	0.38982487
1235772714624	0.6810174	-10.460427	0.61291564	0.6938257
1235772714665	0.027240695	-11.236787	-0.05448139	1.4303017
1235772714704	-0.13620348	-12.462618	0.61291564	2.671774
1235772714745	-0.25878662	-13.184497	-0.9942854	3.417817
1235772714784	-2.2201166	-12.353656	0.8036005	2.7706108
1235772714825	-1.5527196	-12.476238	2.1247742	2.9441195
1235772714865	-1.0079057	-13.307079	1.96133	3.681902
1235772714905	-1.8387469	-12.748646	3.990762	3.6779757
1235772714945	-1.2394516	-12.026767	2.587866	2.5576696
1235772714985	-1.7297841	-9.915613	2.1792557	0.49192715
1235772715024	-1.56634	-6.469665	2.6287272	-2.6498218
1235772715065	-1.0760075	-4.3585114	1.7297841	-4.995562
1235772715105	-1.1304889	-3.800077	1.0079057	-5.7158723
1235772715144	-2.0566726	-4.1814466	-0.3949901	-5.130069
1235772715185	-3.3642259	-6.578628	-4.426613	-1.1932144
1235772715225	-2.8738933	-9.915613	-6.8237944	2.5684385
1235772715264	-2.1111538	-7.913422	-8.499097	1.99648
1235772715305	-0.9125633	-8.022385	-5.706926	0.08073807
1235772715345	0.2860273	-11.413852	-5.2574544	2.7631016
1235772715385	-2.2745981	-5.5843425	-3.0781987	-3.03657
1235772715425	-0.040861044	-8.921328	1.8523673	-0.69495296
1235772715465	0.8308412	-12.14935	-2.6287272	2.6515684
1235772715505	-0.25878662	-6.9191365	1.56634	-2.7077174
1235772715544	0.8308412	-10.133538	1.1168685	0.42204952
1235772715587	-1.2394516	-10.814556	-2.1792557	1.2947016
1235772715627	-1.56634	-7.9679036	0.61291564	-1.6631517
1235772715664	-0.8036005	-8.417375	0.0	-1.3510027
1235772715705	-0.7491191	-9.357179	0.44947147	-0.4087782
1235772715745	-1.4573772	-9.534244	0.84446156	-0.1247673
1235772715785	-0.58567494	-10.869038	0.10896278	1.078701
1235772715825	-1.4028958	-12.203832	-0.7218784	2.498744
1235772715865	0.3405087	-14.587393	-1.2258313	4.836117
1235772715905	0.88532263	-14.641873	0.84446156	4.8862524
1235772715944	-0.7491191	-14.818938	2.1792557	5.1903915
1235772715985	0.8308412	-15.595298	4.031623	6.322752
1235772716025	-0.040861044	-14.369467	5.09401	5.4390764
1235772716065	-0.47671217	-13.034673	4.2495484	3.9115353
1235772716105	-0.53119355	-10.855417	4.4947147	1.9545021
1235772716145	-0.8580819	-7.954283	3.486809	-1.0794077
1235772716185	-0.7491191	-5.5571017	3.3097446	-3.2953548
1235772716225	-1.1849703	-4.5628166	2.4244218	-4.505587
1235772716267	-2.4380422	-4.0180025	1.5799603	-4.848357
1235772716307	-4.399372	-6.183638	-1.5527196	-2.060503
1235772716345	-3.3097446	-11.073342	-6.4832854	3.4450026
1235772716384	-0.8580819	-10.065437	-8.662541	3.5008278
1235772716425	2.5742457	-12.803127	-8.771504	5.925041
1235772716464	0.88532263	-13.797412	-6.033814	5.2784176
1235772716505	-4.344891	-5.339176	-1.6616824	-2.7252612
1235772716545	-1.8387469	-9.234595	4.263169	0.52937126
1235772716585	-2.1111538	-10.296983	1.5799603	0.82260704
1235772716625	0.8308412	-7.1234417	2.2473574	-2.2910438
1235772716665	3.7728362	-11.073342	1.9749504	2.057314
1235772716705	-0.095342435	-10.065437	-2.4516625	0.5535021
1235772716745	-1.3484144	-7.954283	0.7354988	-1.7054272
1235772716784	-1.4573772	-8.458236	0.29964766	-1.2185488
1235772716824	-0.3677494	-9.343558	0.5720546	-0.43837547
1235772716865	-1.56634	-9.575105	1.3075534	-0.016566277
1235772716905	-0.6946377	-10.405946	0.17706452	0.62395763
1235772716945	-0.47671217	-11.849703	-0.32688835	2.0571413
1235772716984	-0.14982383	-13.960856	-0.20430522	4.1565056
1235772717024	0.50395286	-14.137921	-1.1577295	4.3875427
1235772717065	-2.1111538	-13.402422	1.7434045	3.8725796
1235772717105	-1.7842655	-13.579487	3.0373375	4.2223015
1235772717145	-2.0566726	-13.34794	3.3778462	4.1148176
1235772717185	-2.002191	-12.912089	5.1076303	4.222559
1235772717225	-1.1304889	-11.577295	3.4323275	2.3215256
1235772717265	-1.2394516	-9.343558	2.7513103	0.012108803
1235772717307	-1.1304889	-6.0201936	2.5333846	-3.1780176
1235772717347	-1.56634	-4.2904096	1.525479	-4.9912457
1235772717384	-1.8387469	-3.6774938	1.0760075	-5.5566216
1235772717427	-2.9283748	-3.8954194	0.12258313	-4.9317455
1235772717467	-3.2007818	-8.567199	-4.6853995	0.46928596
1235772717507	-1.6753027	-11.400231	-7.1506824	3.7544775
1235772717545	-1.4573772	-10.623871	-8.989429	4.18622
1235772717584	0.7218784	-12.408136	-8.989429	5.532607
1235772717625	-1.2394516	-10.623871	-4.576437	1.8272076
1235772717664	-6.1291566	-5.843129	-2.8466527	-0.8728857
1235772717705	-2.3290794	-8.907707	2.083913	-0.36660004
1235772717745	-1.4573772	-10.56939	0.6810174	0.8844557
1235772717784	0.50395286	-7.8998017	1.6889231	-1.7126217
1235772717824	3.2280223	-10.18802	2.3699405	1.1401529
1235772717865	-0.53119355	-10.065437	-0.939804	0.31651306
1235772717905	-1.293933	-7.504812	2.083913	-1.9111352
1235772717945	-1.0760075	-8.349273	1.3620348	-1.2788553
1235772717984	-0.53119355	-9.520623	1.2394516	-0.19100285
1235772718025	-0.6401563	-9.629586	1.0760075	-0.09601116
1235772718065	-0.040861044	-11.073342	0.23154591	1.2691879
1235772718105	-0.53119355	-12.626062	-0.14982383	2.8314695
1235772718145	1.0487667	-14.519291	-0.54481393	4.760661
1235772718184	0.2860273	-14.519291	0.9125633	4.7441025
1235772718225	-2.1656353	-14.192402	2.3699405	4.7443247
1235772718265	-0.9125633	-14.519291	3.091819	5.066209
1235772718304	-2.383561	-13.851893	4.372132	4.913128
1235772718345	-2.0566726	-12.571581	3.881799	3.5103655
1235772718384	-1.7297841	-10.242501	2.8738933	0.97111607
1235772718424	-2.0566726	-6.7284517	3.091819	-2.1215143
1235772718465	-1.56634	-3.2825038	2.6423476	-5.3110685
1235772718505	-1.56634	-2.1656353	1.8659877	-6.547002
1235772718544	-2.0566726	-2.506144	0.8580819	-6.453001
1235772718587	-3.0373375	-6.851035	-3.8545585	-1.3793306
1235772718631	-2.1656353	-11.032481	-7.096201	3.4885254
1235772718675	-3.091819	-10.787315	-8.553578	4.3032484
1235772718714	-0.9670447	-14.069819	-6.537767	5.73804
1235772718754	-0.9125633	-10.96438	-0.095342435	1.1960535
1235772718797	-4.6172976	-4.4538536	2.4244218	-2.9485111
1235772718837	0.12258313	-9.180115	6.4424243	1.4091587
1235772718875	-0.47671217	-7.572913	2.8738933	-1.6927404
1235772718915	-0.58567494	-6.619489	1.1304889	-3.0658302
1235772718954	1.3211738	-10.351464	1.3075534	0.7103834
1235772718997	-1.3484144	-8.076866	-0.9942854	-1.5578575
1235772719037	-1.1849703	-6.905516	1.6889231	-2.5995169
1235772719075	-0.8036005	-8.730643	0.8580819	-0.99721146
1235772719115	-0.095342435	-9.847511	1.1849703	0.11235809
1235772719155	0.667397	-9.956474	0.8036005	0.20447254
1235772719194	-0.20430522	-11.631777	-0.14982383	1.8278856
1235772719235	-0.5720546	-12.735025	-0.2860273	2.9444256
1235772719275	0.08172209	-13.525005	-1.1168685	3.764637
1235772719318	-2.819412	-13.375181	0.06810174	3.862629
1235772719357	-3.255263	-13.3207	1.3620348	3.9735136
1235772719395	-2.0566726	-13.756551	1.8115063	4.2202578
1235772719434	-2.7104492	-13.375181	3.3778462	4.252221
1235772719475	-1.7842655	-12.14935	2.8738933	2.8048353
1235772719515	-1.6208214	-9.588725	2.3699405	0.20271206
1235772719555	-1.7297841	-5.7341666	2.8602731	-3.1693325
1235772719594	-1.7297841	-2.7240696	2.1792557	-5.9128265
1235772719634	-1.5118586	-1.7842655	1.6208214	-6.961236
1235772719674	-2.1111538	-3.0645783	-0.16344418	-6.081691
1235772719720	-2.8738933	-8.62168	-5.3119354	0.7199497
1235772719754	-2.383561	-11.073342	-7.8861814	3.9952383
1235772719797	-3.636633	-11.304889	-9.139254	5.1783943
1235772719837	-3.1463003	-14.601013	-5.5434813	6.1250467
1235772719877	-2.982856	-9.588725	1.3484144	0.3254423
1235772719917	-4.235928	-5.965712	4.263169	-1.3386269
1235772719957	0.50395286	-10.256122	7.177923	2.721901
1235772719997	1.7025435	-7.572913	3.3642259	-1.3469992
1235772720034	0.9942854	-7.177923	1.0623871	-2.482727
1235772720074	1.3211738	-9.738548	0.50395286	0.034020424
1235772720116	-0.6946377	-7.6273947	-0.667397	-2.1186666
1235772720156	-0.8036005	-6.742072	1.3484144	-2.8842564
1235772720193	-0.313268	-8.730643	1.0079057	-1.0124397
1235772720234	-0.313268	-9.901993	1.5118586	0.21499157
1235772720274	-0.313268	-9.738548	0.7899802	-0.031092644
1235772720314	-1.1849703	-11.577295	-0.21792556	1.8331699
1235772720358	-0.8036005	-13.266219	-0.32688835	3.4879045
1235772720397	-0.313268	-13.988097	-1.3892754	4.2537584
1235772720435	-2.547005	-14.628253	0.55843425	5.0521803
1235772720475	-1.7842655	-14.573772	2.070293	5.02118
1235772720515	-2.3971813	-15.799603	2.4789033	6.364897
1235772720555	-2.9964764	-14.410328	4.1542063	5.4869385
1235772720595	-2.4380422	-11.75436	3.2416427	2.6278696
1235772720635	-2.7649305	-8.798744	2.7921712	-0.17031479
1235772720677	-1.6208214	-3.9635212	3.255263	-4.427682
1235772720717	-1.1304889	-2.3563201	2.070293	-6.4725294
1235772720754	-0.9125633	-2.3563201	0.84446156	-7.142418
1235772720795	-2.1656353	-4.903325	-3.0781987	-3.6253977
1235772720834	-1.8387469	-10.20164	-6.3198414	2.3339777
1235772720877	-2.8738933	-9.248216	-8.172209	2.86512
1235772720915	-1.3484144	-13.497765	-6.9463773	5.4334297
1235772720955	-0.6946377	-11.999526	-1.9068487	2.3632812
1235772720997	-4.930566	-4.072484	0.3949901	-3.399496
1235772721035	-0.25878662	-10.365085	4.69902	1.5767908
1235772721077	0.17706452	-8.7034025	1.9068487	-0.8950491
1235772721117	-0.53119355	-7.641015	0.7899802	-2.1065626
1235772721155	1.6480621	-11.35937	1.0623871	1.7207117
1235772721197	-0.9670447	-8.866846	-1.5118586	-0.76000214
1235772721237	-1.293933	-7.3549876	1.0623871	-2.2635226
1235772721274	-0.7491191	-8.866846	0.3949901	-0.89945316
1235772721317	-0.040861044	-9.929234	0.61291564	0.14156628
1235772721357	0.12258313	-9.547864	0.3405087	-0.25193024
1235772721395	-0.47671217	-11.481953	-0.95342433	1.7246761
1235772721434	0.2860273	-13.919995	-0.95342433	4.1488895
1235772721475	0.3949901	-14.696355	-2.1792557	5.0556526
1235772721514	-2.0566726	-14.47843	0.7899802	4.8384476
1235772721558	-2.4925237	-13.960856	2.1247742	4.5332546
1235772721597	-3.255263	-14.1787815	2.5742457	4.96702
1235772721637	-2.982856	-13.007432	4.767122	4.364312
1235772721677	-1.6753027	-11.563675	2.5197644	2.1463594
1235772721715	-1.7297841	-8.662541	2.8738933	-0.51735306
1235772721757	-1.293933	-3.92266	3.214402	-4.5727315
1235772721797	-1.8387469	-2.2064962	2.315459	-6.117346
1235772721834	-2.1111538	-2.0294318	1.6344417	-6.453001
1235772721877	-3.0373375	-4.535576	-1.8523673	-4.0422654
1235772721922	-2.3290794	-10.337844	-5.8839903	2.3142815
1235772721965	-2.4925237	-10.61025	-7.327747	3.3267412
1235772722004	-1.6208214	-13.34794	-8.499097	6.1002417
1235772722045	-2.002191	-15.132206	-6.428804	6.7560177
1235772722087	-8.322033	-8.049625	-3.4595683	2.277278
1235772722125	-2.819412	-11.454713	1.8523673	2.134488
1235772722165	-1.0760075	-11.890564	1.1168685	2.1846256
1235772722207	-0.040861044	-8.049625	2.6423476	-1.3343334
1235772722245	4.0452433	-10.61025	3.091819	1.9619837
1235772722288	-0.3677494	-9.112013	-0.667397	-0.66283035
1235772722327	-1.2394516	-7.273266	2.1792557	-2.11342
1235772722365	-0.8036005	-8.553578	0.8036005	-1.1779041
1235772722405	0.17706452	-9.329938	0.9670447	-0.42505836
1235772722447	-0.14982383	-9.615966	0.3949901	-0.18140984
1235772722487	-0.42223078	-10.896278	-0.3949901	1.1049566
1235772722525	-1.1304889	-12.176591	-0.43585113	2.4300709
1235772722564	0.23154591	-13.960856	-0.6537767	4.171424
1235772722605	-1.1849703	-14.274124	0.05448139	4.516679
1235772722644	-2.819412	-14.110681	1.96133	4.715995
1235772722685	-1.9477097	-14.274124	2.5333846	4.820798
1235772722724	-3.5821514	-14.165162	3.091819	5.1279726
1235772722765	-2.547005	-12.435377	3.3642259	3.3251371
1235772722804	-2.002191	-9.765789	2.1247742	0.38619328
1235772722845	-2.233737	-6.6467295	2.6423476	-2.31328
1235772722884	-1.7434045	-2.8602731	2.6423476	-5.540197
1235772722925	-1.8523673	-1.8659877	2.083913	-6.4516735
1235772722965	-2.3426998	-2.8602731	0.8036005	-6.0231094
1235772723005	-3.2688835	-6.864655	-4.4129925	-1.0155411
1235772723045	-2.669588	-10.991621	-6.9872384	3.4886093
1235772723085	-3.3778462	-11.372991	-9.112013	5.152746
1235772723124	-2.233737	-12.884849	-8.4854765	5.782199
1235772723165	-2.4516625	-12.326415	-4.072484	3.4045677
1235772723205	-7.3958488	-7.6546354	-2.2201166	1.0662947
1235772723245	-2.1792557	-9.479762	3.091819	0.39993572
1235772723285	-0.21792556	-10.8281765	1.7434045	1.1631432
1235772723325	0.43585113	-8.4854765	2.3699405	-0.98565865
1235772723365	3.5957718	-10.378705	2.6423476	1.490655
1235772723404	-0.21792556	-9.929234	-0.4903325	0.13707161
1235772723445	-1.3620348	-7.709117	1.7978859	-1.7743397
1235772723485	-1.0351465	-8.267551	1.3075534	-1.3725748
1235772723525	0.27240697	-9.425281	1.1304889	-0.30990696
1235772723564	0.16344418	-9.370799	1.1304889	-0.36649132
1235772723604	0.43585113	-10.651112	0.17706452	0.85484505
1235772723645	-0.05448139	-11.822462	0.013620348	2.0159454
1235772723685	1.8523673	-13.606728	0.40861043	3.9316635
1235772723725	0.27240697	-14.778077	1.1304889	5.017107
1235772723765	-2.2882185	-14.437569	2.4244218	5.010811
1235772723804	-1.6889231	-14.546532	3.6502533	5.285679
1235772723845	-4.031623	-14.996003	3.486809	6.1084976
1235772723887	-3.1054392	-14.124301	3.92266	5.1775713
1235772723927	-2.3971813	-11.890564	3.3097446	2.766591
1235772723964	-2.1792557	-9.261836	2.982856	0.16471863
1235772724005	-1.1985906	-4.807983	3.2007818	-3.9076395
1235772724044	-1.1985906	-2.3699405	2.192876	-6.3625326
1235772724085	-1.253072	-1.8115063	1.7434045	-6.9975214
1235772724125	-2.3971813	-3.091819	-0.5992953	-5.848749
1235772724165	-3.4323275	-8.812365	-5.5843425	1.1762238
1235772724205	-2.9964764	-11.372991	-7.477571	4.130274
1235772724247	-3.1599207	-12.271934	-8.430995	5.4139643
1235772724291	-3.5412905	-15.322891	-6.197258	7.097128
1235772724328	-3.8136973	-10.487668	0.626536	1.37047
1235772724365	-3.214402	-6.932757	3.636633	-1.3437548
1235772724407	0.0	-10.337844	5.7750273	2.0348854
1235772724445	1.4709976	-8.036005	4.263169	-0.59167194
1235772724485	0.81722087	-7.477571	1.9749504	-2.0296106
1235772724527	0.32688835	-10.283362	0.89894295	0.52110386
1235772724567	-0.6537767	-8.335652	-0.05448139	-1.4452219
1235772724607	-0.54481393	-7.43671	0.95342433	-2.2893038
1235772724647	0.27240697	-9.166494	0.84446156	-0.597311
1235772724685	0.16344418	-9.874752	0.9670447	0.11668682
1235772724724	0.0	-10.433187	0.17706452	0.6280384
1235772724765	-0.5992953	-12.094869	-0.54481393	2.3153067
1235772724805	0.27240697	-14.042579	-0.14982383	4.2393694
1235772724845	-0.32688835	-14.832559	-1.3892754	5.0944147
1235772724884	-2.7785509	-13.988097	0.8580819	4.48053
1235772724928	-1.7842655	-14.08344	2.3563201	4.5835943
1235772724967	-2.2201166	-14.301365	2.3563201	4.856576
1235772725005	-2.233737	-13.279839	4.658159	4.4426355
1235772725047	-2.0158114	-11.4410925	3.4323275	2.3071003
1235772725087	-2.4380422	-8.662541	2.9147544	-0.347291
1235772725125	-1.7842655	-4.8216033	3.0237172	-3.8422284
1235772725165	-1.1849703	-3.1054392	1.7842655	-6.0341825
1235772725207	-0.7491191	-2.9283748	1.1168685	-6.584236
1235772725247	-1.9477097	-3.990762	-1.2803127	-5.1850753
1235772725285	-2.383561	-9.997335	-5.202973	1.7128553
1235772725325	-2.6559677	-10.841797	-6.8237944	3.2762737
1235772725367	-2.4925237	-12.231072	-8.839605	5.4887886
1235772725410	-2.4925237	-16.957333	-5.8158884	8.292751
1235772725447	-5.7477865	-10.174399	-0.95342433	1.9178734
1235772725485	-3.3642259	-7.84532	2.2473574	-0.9795513
1235772725527	-0.25878662	-12.585201	4.372132	3.5188818
1235772725567	1.1577295	-7.7363577	3.5276701	-1.2255068
1235772725607	2.73769	-8.839605	2.1792557	-0.29966736
1235772725645	0.44947147	-11.781601	0.50395286	1.9942865
1235772725685	-1.3484144	-7.995144	1.1713499	-1.6144218
1235772725725	-1.6208214	-7.940663	1.1168685	-1.6256609
1235772725765	0.013620348	-9.275456	0.7899802	-0.49760342
1235772725804	-0.313268	-9.724928	1.0623871	-0.018850327
1235772725845	0.3949901	-10.446807	-0.10896278	0.6481886
1235772725885	-0.20430522	-11.999526	-0.61291564	2.2102566
1235772725924	1.1032481	-14.560152	-0.05448139	4.7953415
1235772725964	0.55843425	-15.731502	-0.667397	5.948901
1235772726007	-2.4925237	-14.560152	1.7297841	5.0662403
1235772726047	-1.8932283	-14.7916975	2.7921712	5.3648643
1235772726084	-4.0180025	-14.124301	2.969236	5.1752253
1235772726127	-3.4731886	-12.408136	4.263169	3.7653608
1235772726164	-2.4925237	-10.855417	2.8057916	1.6792202
1235772726207	-2.383561	-7.8861814	2.73769	-1.1251659
1235772726245	-1.1304889	-3.8273177	2.9147544	-4.864772
1235772726284	-0.9125633	-2.2609777	2.070293	-6.6080713
1235772726324	-1.2394516	-2.3290794	1.1713499	-6.919972
1235772726365	-2.7104492	-5.3800373	-3.0781987	-3.0415454
1235772726405	-2.547005	-10.7192135	-6.5513873	3.011675
1235772726444	-3.5276701	-10.446807	-7.668256	3.6240005
1235772726487	-3.255263	-11.563675	-9.343558	5.4123316
1235772726526	-3.5821514	-14.587393	-4.2086873	5.7926083
1235772726567	-6.6467295	-9.847511	-0.10896278	2.0746107
1235772726607	-3.1463003	-9.343558	3.0781987	0.52178574
1235772726645	-0.7491191	-13.470524	5.09401	4.6143456
1235772726687	0.9942854	-9.438901	2.9147544	0.12195778
1235772726727	2.1383946	-9.220976	1.7842655	-0.17427063
1235772726764	0.013620348	-11.686258	-0.16344418	1.8807592
1235772726805	-0.53119355	-8.349273	0.44947147	-1.4284315
1235772726847	-0.7491191	-7.559293	1.0079057	-2.143755
1235772726887	0.12258313	-9.329938	0.89894295	-0.43270397
1235772726927	0.12258313	-10.106298	0.95342433	0.34526157
1235772726965	0.2860273	-10.7192135	0.3949901	0.92365074
1235772727007	-0.25878662	-12.244693	-0.10896278	2.4412613
1235772727047	0.7763598	-14.805318	0.10896278	5.019409
1235772727084	0.013620348	-15.568057	-1.1713499	5.805417
1235772727127	-2.8738933	-14.560152	1.4573772	5.1058025
1235772727165	-1.7842655	-14.696355	2.5742457	5.2197666
1235772727207	-2.4925237	-14.47843	2.5197644	5.0992823
1235772727247	-2.1656353	-13.021052	4.8760843	4.265094
1235772727287	-1.4028958	-11.413852	2.7513103	2.0176392
1235772727327	-1.9477097	-8.676162	2.6287272	-0.5341339
1235772727367	-1.5118586	-4.385752	3.0781987	-4.239259
1235772727405	-1.6208214	-2.7104492	1.8523673	-6.1453853
1235772727447	-1.4573772	-2.4380422	1.2258313	-6.7130017
1235772727487	-2.1656353	-3.7728362	-1.0623871	-5.3285995
1235772727527	-2.4380422	-10.051817	-5.761407	2.0329819
1235772727567	-1.4573772	-11.999526	-7.7227373	4.5374517
1235772727607	-2.1656353	-13.6748295	-9.125633	6.7755127
1235772727645	-1.7842655	-17.869896	-6.2244987	9.200222
1235772727685	-2.7649305	-10.242501	1.0623871	0.8555422
1235772727725	-3.800077	-7.1234417	3.3642259	-1.0601063
1235772727767	0.3949901	-10.623871	6.0474343	2.4242163
1235772727805	0.9942854	-6.3334618	4.031623	-2.2333202
1235772727847	1.1032481	-7.995144	1.0079057	-1.6730556
1235772727885	1.2666923	-10.56939	0.667397	0.8592739
1235772727927	-1.293933	-7.6137743	-0.3949901	-2.0736146
1235772727964	-1.1304889	-7.273266	1.0079057	-2.3773656
1235772728005	-0.53119355	-8.771504	0.7899802	-0.98363876
1235772728045	-0.58567494	-9.507003	0.95342433	-0.23402596
1235772728086	-0.14982383	-9.507003	0.3949901	-0.29026604
1235772728127	0.17706452	-11.890564	-0.61291564	2.101017
1235772728164	0.2860273	-13.892755	-0.61291564	4.10256
1235772728204	0.06810174	-15.009624	-1.9068487	5.3237667
1235772728247	-2.547005	-14.7916975	2.070293	5.34484
1235772728287	-3.2688835	-14.233263	2.587866	5.024682
1235772728327	-4.140586	-13.620348	3.3778462	4.824419
1235772728367	-3.5957718	-11.563675	4.944186	3.2736073
1235772728405	-2.1792557	-9.888372	1.8659877	0.48951244
1235772728444	-2.070293	-6.769313	2.587866	-2.2696242
1235772728484	-1.3075534	-3.1054392	2.5333846	-5.5910263
1235772728525	-1.4165162	-2.0975335	1.9749504	-6.5962615
1235772728567	-1.8523673	-2.8738933	0.8036005	-6.294343
1235772728605	-2.5606253	-7.000859	-4.0861044	-1.3057632
1235772728645	-1.96133	-10.96438	-7.1234417	3.4148426
1235772728685	-2.6151068	-11.127824	-8.349273	4.3488293
1235772728724	-2.669588	-13.021052	-8.853226	6.163763
1235772728767	-3.2688835	-13.72931	-4.8488436	5.1161785
1235772728807	-8.430995	-9.615966	-2.901134	3.3068943
1235772728845	-3.5412905	-11.631777	1.7978859	2.484459
1235772728885	-1.0896279	-12.803127	1.6753027	3.151513
1235772728927	-0.32688835	-8.894087	2.2473574	-0.627203
1235772728967	3.3778462	-10.501288	2.8738933	1.5927429
1235772729007	-0.38136974	-10.174399	-0.54481393	0.3894596
1235772729045	-1.1985906	-7.7227373	1.4709976	-1.8542213
1235772729085	-0.54481393	-8.22669	1.1304889	-1.4847956
1235772729127	0.16344418	-9.166494	0.8036005	-0.6035471
1235772729167	-0.27240697	-9.275456	0.7354988	-0.4980917
1235772729205	0.32688835	-10.501288	-0.040861044	0.6998043
1235772729244	-0.32688835	-11.9450445	-0.38136974	2.1489506
1235772729285	1.7434045	-14.056199	0.013620348	4.3572607
1235772729327	1.3620348	-15.091345	-0.7218784	5.3632183
1235772729365	-1.7978859	-14.028958	1.7978859	4.4508553
1235772729405	-1.4709976	-14.301365	2.5742457	4.798815
1235772729444	-3.5412905	-14.301365	2.6287272	5.1593103
1235772729487	-3.3778462	-13.021052	4.4810944	4.3721313
1235772729525	-2.2882185	-11.577295	2.4108016	2.2383356
1235772729565	-2.233737	-8.567199	2.465283	-0.61621475
1235772729607	-1.3620348	-4.3312707	2.9147544	-4.411204
1235772729645	-1.4165162	-2.4925237	2.070293	-6.2703657
1235772729687	-1.3620348	-2.383561	1.56634	-6.6459665
1235772729727	-2.070293	-4.4947147	-1.56634	-4.616082
1235772729772	-2.506144	-9.956474	-5.7205462	1.9465103
1235772729817	-2.7785509	-11.127824	-7.177923	3.7237377
1235772729855	-3.6502533	-13.416042	-7.6273947	6.05184
1235772729895	-4.467474	-15.527196	-5.09401	7.1344566
1235772729937	-7.205164	-10.460427	-0.84446156	2.9231596
1235772729977	-3.3778462	-11.35937	3.4187074	2.5275583
1235772730015	-0.6537767	-12.408136	2.7513103	2.9196606
1235772730057	0.54481393	-9.39804	3.0781987	0.0976553
1235772730095	1.96133	-10.010956	2.465283	0.6882858
1235772730135	-0.7627395	-9.629586	-0.3405087	-0.14090443
1235772730177	-0.4903325	-7.84532	1.56634	-1.7914839
1235772730214	-0.32688835	-8.172209	0.7899802	-1.5898428
1235772730255	0.16344418	-9.180115	0.61291564	-0.6046457
1235772730295	0.43585113	-9.684067	0.55843425	-0.0967083
1235772730337	0.21792556	-10.514909	0.16344418	0.71178627
1235772730377	-0.54481393	-11.849703	0.16344418	2.056697
1235772730417	2.1247742	-14.301365	0.21792556	4.6533356
1235772730454	0.27240697	-15.309271	-0.84446156	5.5283136
1235772730494	-2.5606253	-14.47843	1.1713499	4.943054
1235772730537	-1.253072	-14.641873	2.070293	5.033861
1235772730575	-3.5957718	-14.805318	2.3018389	5.601967
1235772730615	-2.9419951	-13.525005	4.3176503	4.6924257
1235772730655	-2.2882185	-11.904184	2.5197644	2.5745764
1235772730697	-2.669588	-8.907707	2.7513103	-0.10903931
1235772730737	-1.6344417	-4.276789	3.0781987	-4.289619
1235772730777	-1.4165162	-2.3290794	2.070293	-6.3836045
1235772730814	-1.3075534	-2.4380422	1.56634	-6.627473
1235772730857	-2.4516625	-4.385752	-1.1168685	-4.659528
1235772730895	-2.3426998	-10.855417	-5.597963	2.6298084
1235772730935	-2.3971813	-11.972285	-7.4503303	4.496829
1235772730975	-2.669588	-12.462618	-9.084772	5.8450785
1235772731017	-1.8523673	-14.968762	-4.5900574	5.9592533
1235772731055	-4.2495484	-9.738548	0.55843425	0.8333607
1235772731095	-3.7047346	-6.7284517	3.2007818	-1.485465
1235772731135	0.16344418	-10.514909	5.8839903	2.2437172
1235772731177	1.0351465	-7.8998017	2.070293	-1.5747299
1235772731217	1.6344417	-7.177923	0.7218784	-2.4096856
1235772731255	1.253072	-10.56939	-0.05448139	0.8369007
1235772731297	-0.81722087	-8.117727	-0.667397	-1.6206398
1235772731337	-0.81722087	-7.504812	0.89894295	-2.2041407
1235772731375	-0.05448139	-8.962189	1.0623871	-0.7815485
1235772731414	-0.21792556	-9.738548	1.3484144	0.02722168
1235772731455	0.27240697	-9.956474	0.89894295	0.19403362
1235772731497	-0.38136974	-11.577295	0.2860273	1.7804565
1235772731535	-0.16344418	-13.075534	0.55843425	3.281824
1235772731577	0.16344418	-13.579487	-0.44947147	3.7812567
1235772731615	-2.506144	-12.912089	1.8523673	3.4761982
1235772731655	-2.0158114	-13.075534	3.3097446	3.8310728
1235772731694	-1.253072	-13.198117	3.5821514	3.926241
1235772731734	-1.7978859	-13.198117	5.1621118	4.4786596
1235772731777	-1.253072	-11.904184	3.5276701	2.6723022
1235772731817	-1.8523673	-9.234595	2.8602731	0.03663063
1235772731855	-2.070293	-5.843129	2.4108016	-3.1553168
1235772731894	-1.5799603	-2.9964764	1.96133	-5.8923225
1235772731935	-1.525479	-2.6559677	1.3484144	-6.4600887
1235772731974	-2.1792557	-3.050958	0.3949901	-6.0365686
1235772732015	-2.9964764	-7.000859	-4.263169	-1.0793648
1235772732055	-2.1792557	-11.018862	-7.2324047	3.5526962
1235772732095	-3.1054392	-10.678352	-8.240311	4.0343637
1235772732135	-1.96133	-12.408136	-9.248216	5.79265
1235772732177	-2.4516625	-12.244693	-4.930566	3.6192064
1235772732217	-8.131348	-7.1234417	-3.0237172	1.4185495
1235772732255	-2.506144	-9.901993	2.0158114	0.6045799
1235772732297	-1.0351465	-11.631777	1.4709976	1.9633799
1235772732337	-0.27240697	-8.512717	2.4244218	-0.9512348
1235772732375	3.486809	-10.623871	3.0781987	1.7907534
1235772732414	-0.4903325	-9.684067	-1.0079057	-0.05793476
1235772732457	-0.980665	-7.4503303	1.6344417	-2.1163626
1235772732497	-0.43585113	-8.349273	0.8036005	-1.4074774
1235772732537	0.16344418	-9.180115	0.8580819	-0.5850706
1235772732575	0.0	-9.629586	0.9125633	-0.13392067
1235772732617	0.4903325	-10.623871	-0.21792556	0.83076286
1235772732655	-0.43585113	-11.972285	-0.61291564	2.1892347
1235772732695	1.5799603	-14.641873	-0.3949901	4.925517
1235772732735	0.32688835	-15.636159	-1.3484144	5.8909464
1235772732777	-2.233737	-14.750836	0.8580819	5.1370125
1235772732815	-1.0896279	-15.023244	2.192876	5.4148426
1235772732854	-2.9964764	-14.805318	2.5333846	5.509822
1235772732895	-2.5606253	-13.470524	4.6036777	4.6572933
1235772732937	-2.3971813	-11.74074	3.4187074	2.6544495
1235772732977	-2.7240696	-9.125633	3.0237172	0.18537712
1235772733017	-1.6889231	-4.8352237	2.8602731	-3.94039
1235772733054	-1.3075534	-2.8330324	2.070293	-6.06207
1235772733097	-1.1985906	-2.547005	1.4709976	-6.630538
1235772733137	-2.070293	-3.9362805	-0.9942854	-5.2493463
1235772733177	-2.1792557	-10.242501	-5.761407	2.1454124
1235772733217	-1.6344417	-11.522814	-7.668256	4.130666
1235772733255	-1.96133	-10.746454	-9.139254	4.4362097
1235772733295	-0.43585113	-12.517099	-4.263169	3.423707
1235772733335	-1.3620348	-9.629586	-0.21792556	-0.07877445
1235772733375	-3.6502533	-5.952092	1.6208214	-2.6387486
1235772733417	0.43585113	-10.010956	6.183638	1.9681778
1235772733457	0.6537767	-9.343558	1.0215261	-0.3847065
1235772733495	0.27240697	-6.006573	1.9068487	-3.4987822
1235772733535	1.5799603	-9.520623	1.56634	-0.029536247
1235772733577	-0.6537767	-8.962189	-1.1577295	-0.7463751
1235772733617	-0.92618364	-7.2324047	1.525479	-2.357316
1235772733654	-0.4903325	-8.907707	0.7899802	-0.8505497
1235772733695	-0.38136974	-9.629586	1.5118586	-0.051647186
1235772733737	-0.81722087	-9.01667	0.9125633	-0.70714664
1235772733777	-1.0351465	-10.800936	0.06810174	1.0439892
1235772733815	-1.1985906	-12.190211	0.21792556	2.4442825
1235772733855	0.32688835	-14.137921	-0.61291564	4.3483257
1235772733898	-1.7434045	-13.947236	0.84446156	4.2744713
1235772733937	-2.7240696	-13.783792	2.5742457	4.4776134
1235772733978	-1.7025435	-13.72931	3.3097446	4.4182234
1235772734015	-3.2825038	-13.116395	4.372132	4.4035635
1235772734055	-2.669588	-11.958665	3.8545585	3.0383482
1235772734097	-2.506144	-9.39804	3.0237172	0.37896633
1235772734135	-2.3018389	-6.6875906	3.13268	-2.0712762
1235772734175	-1.3756552	-3.5140498	2.5742457	-5.2385306
1235772734215	-1.2122109	-2.5606253	1.6753027	-6.515314
1235772734257	-1.5390993	-2.8466527	0.7218784	-6.4910254
1235772734297	-2.5197644	-6.183638	-3.759216	-2.1438637
1235772734342	-2.1383946	-11.086963	-7.2324047	3.6023445
1235772734387	-3.1190596	-10.256122	-8.240311	3.7144175
1235772734427	-1.6480621	-13.593107	-7.3958488	5.7557163
1235772734467	-1.7025435	-11.985906	-2.6287272	2.5816832
1235772734505	-6.183638	-4.5628166	0.10896278	-2.1210437
1235772734545	-0.55843425	-9.030291	5.3800373	0.71964073
1235772734585	0.20430522	-8.362893	2.6832085	-1.0214739
1235772734624	0.53119355	-6.851035	2.465283	-2.506207
1235772734665	3.3097446	-10.474048	2.9147544	1.5580263
1235772734707	-0.23154591	-9.030291	-1.2803127	-0.6831112
1235772734747	-0.8308412	-7.3005066	1.6344417	-2.2794266
1235772734785	-0.50395286	-8.689782	0.7218784	-1.0723848
1235772734825	-0.06810174	-9.357179	1.1168685	-0.38280678
1235772734865	-0.23154591	-9.248216	0.84446156	-0.5170746
1235772734907	0.313268	-10.58301	0.10896278	0.7815552
1235772734945	-0.55843425	-11.75436	0.013620348	1.9609747
1235772734987	1.5118586	-14.042579	-0.14982383	4.317874
1235772735027	-0.2860273	-14.87342	-0.88532263	5.0958405
1235772735065	-2.5197644	-14.314985	1.3075534	4.7871065
1235772735107	-1.2666923	-14.546532	2.1792557	4.9566574
1235772735147	-3.1190596	-14.601013	2.465283	5.3259554
1235772735187	-2.0294318	-13.034673	4.4810944	4.1253805
1235772735225	-1.7570249	-11.141444	2.969236	1.8567657
1235772735265	-2.083913	-8.131348	3.0781987	-0.8659115
1235772735305	-1.484618	-3.8954194	3.13268	-4.592049
1235772735347	-1.8115063	-2.6151068	2.083913	-6.003621
1235772735387	-1.9749504	-2.8466527	1.0760075	-6.178751
1235772735427	-2.6287272	-5.175732	-2.4516625	-3.5051374
1235772735467	-1.8659877	-10.760075	-5.9793324	2.643793
1235772735505	-2.083913	-11.086963	-7.2324047	3.5937643
1235772735545	-2.0294318	-13.538626	-9.01667	6.585827
1235772735585	-2.3018389	-15.935807	-6.2244987	7.455818
1235772735624	-9.125633	-9.80665	-4.5900574	4.3537245
1235772735665	-4.4810944	-11.086963	0.21792556	2.153635
1235772735705	-1.5390993	-12.707785	0.95342433	3.0294561
1235772735745	-0.88532263	-8.689782	1.56634	-0.9325571
1235772735785	4.072484	-10.474048	3.0237172	1.8309469
1235772735825	0.3677494	-10.691973	-0.44947147	0.901083
1235772735864	-1.2122109	-8.076866	1.4028958	-1.5197124
1235772735907	-0.61291564	-8.417375	1.0760075	-1.2986746
1235772735947	-0.17706452	-9.030291	1.1304889	-0.7041502
1235772735985	-0.667397	-9.302697	1.6208214	-0.34025383
1235772736025	0.20430522	-9.697687	1.56634	0.018841743
1235772736067	-0.3949901	-11.372991	0.9125633	1.6097288
1235772736107	1.4028958	-13.879134	1.0215261	4.180558
1235772736147	1.0760075	-14.87342	-0.5992953	5.1176777
1235772736187	-1.8659877	-14.042579	0.9670447	4.392332
1235772736227	-1.7025435	-14.314985	2.2609777	4.785453
1235772736267	-3.2825038	-13.266219	2.4244218	4.073019
1235772736304	-3.173541	-12.421757	4.031623	3.6330442
1235772736345	-2.3018389	-11.917805	2.6832085	2.624445
1235772736385	-2.3563201	-9.41166	2.3018389	0.16481209
1235772736425	-1.5390993	-6.578628	2.5742457	-2.57658
1235772736465	-1.2122109	-4.072484	2.465283	-4.8941965
1235772736505	-1.484618	-2.901134	1.7978859	-6.08468
1235772736545	-2.3018389	-3.1190596	0.7218784	-5.8635416
1235772736587	-3.2280223	-6.851035	-4.767122	-0.8577814
1235772736627	-2.3018389	-10.256122	-7.3958488	3.045784
1235772736667	-3.0645783	-9.861132	-9.01667	3.9022484
1235772736707	-1.5390993	-13.538626	-8.744264	6.3836365
1235772736745	-1.1032481	-9.970095	-0.55843425	0.23983192
1235772736784	-6.347082	-4.2904096	0.84446156	-2.0991096
1235772736825	-0.9942854	-9.466142	5.5434813	1.2081871
1235772736865	-0.44947147	-7.4639506	3.759216	-1.4374037
1235772736907	-1.1577295	-7.246025	0.50395286	-2.4514356
1235772736947	2.982856	-10.869038	1.5118586	1.5652065
1235772736984	-0.06810174	-8.362893	-1.4573772	-1.3174477
1235772737027	-0.55843425	-7.3005066	1.3620348	-2.3592086
1235772737067	-0.17706452	-8.853226	0.7491191	-0.92002296
1235772737107	-0.55843425	-9.466142	0.9670447	-0.274868
1235772737147	-0.23154591	-9.534244	0.8580819	-0.23107052
1235772737184	-0.61291564	-11.032481	0.0	1.2428436
1235772737227	-0.7763598	-11.645397	0.3405087	1.869564
1235772737264	0.6401563	-13.211738	0.05448139	3.4207
1235772737308	-2.4108016	-13.756551	0.44947147	4.1667776
1235772737345	-3.5957718	-13.593107	1.7978859	4.3684883
1235772737385	-2.2882185	-14.042579	2.8602731	4.705797
1235772737425	-3.6502533	-14.206022	2.969236	5.158368
1235772737465	-2.5606253	-12.816748	3.5821514	3.7453842
1235772737505	-2.0158114	-10.474048	2.8057916	1.222476
1235772737545	-2.2882185	-8.022385	2.465283	-1.1076717
1235772737585	-1.253072	-4.4538536	2.7513103	-4.423648
1235772737625	-1.3075534	-3.2280223	1.7434045	-5.911874
1235772737664	-1.525479	-3.336985	0.84446156	-6.0415907
1235772737707	-2.3971813	-5.3527966	-2.465283	-3.4445333
1235772737747	-1.96133	-9.970095	-5.7205462	1.8541489
1235772737785	-1.7434045	-10.474048	-6.782933	2.7930841
1235772737825	-2.1247742	-10.637491	-8.294792	3.848915
1235772737872	-1.6344417	-14.260504	-2.1247742	4.703623
1235772737917	-4.3585114	-9.80665	2.1792557	1.1439734
1235772737955	-1.1985906	-8.471856	5.6660647	0.455575
1235772737995	2.3426998	-13.375181	7.504812	5.70805
1235772738034	2.4516625	-8.853226	3.636633	0.07339859
1235772738075	3.050958	-8.921328	2.1247742	-0.14160538
1235772738115	0.21792556	-11.086963	0.05448139	1.282588
1235772738155	-0.980665	-8.076866	0.3405087	-1.6633453
1235772738194	-0.980665	-7.9679036	1.1713499	-1.6936207
1235772738235	0.0	-9.41166	0.89894295	-0.35215664
1235772738275	-0.05448139	-9.970095	1.4573772	0.2695446
1235772738314	-0.05448139	-9.752169	0.89894295	-0.012986183
1235772738354	-0.27240697	-11.427472	-0.05448139	1.624198
1235772738394	0.81722087	-14.151542	0.44947147	4.375592
1235772738434	0.10896278	-15.213928	-1.8523673	5.5200176
1235772738475	-2.9419951	-14.87342	0.50395286	5.3633175
1235772738515	-2.7240696	-14.818938	2.2473574	5.4272623
1235772738555	-3.6502533	-13.756551	2.5197644	4.6472855
1235772738595	-3.3778462	-12.816748	4.8760843	4.316206
1235772738634	-2.1247742	-11.427472	3.255263	2.263914
1235772738675	-2.1792557	-9.030291	2.6287272	-0.15234947
1235772738714	-1.4709976	-5.570722	2.6287272	-3.4736423
1235772738755	-1.0896279	-3.173541	2.070293	-5.863965
1235772738795	-1.1441092	-2.5606253	1.6208214	-6.5673833
1235772738835	-2.070293	-3.2825038	-0.21792556	-5.919693
1235772738875	-2.669588	-8.798744	-5.4890003	0.90193176
1235772738917	-2.1792557	-11.536434	-7.6273947	4.1939077
1235772738957	-2.233737	-10.869038	-9.643207	4.894268
1235772738994	-0.87170225	-13.933616	-6.5513873	5.6149645
1235772739035	-1.3620348	-10.58301	-1.2394516	0.9353924
1235772739075	-4.4129925	-5.298315	0.50395286	-2.8928514
1235772739115	-0.16344418	-9.534244	5.829509	1.3697395
1235772739155	0.27240697	-8.417375	1.56634	-1.240448
1235772739195	0.38136974	-6.578628	1.7434045	-2.9902544
1235772739235	2.1792557	-10.310603	1.8523673	0.893301
1235772739274	-1.1441092	-8.853226	-1.1713499	-0.80328083
1235772739314	-1.1985906	-7.137062	2.070293	-2.2793407
1235772739355	-0.5992953	-8.635301	1.1168685	-1.0788231
1235772739395	-0.38136974	-9.357179	1.56634	-0.3116169
1235772739435	0.32688835	-9.534244	0.89894295	-0.22454453
1235772739475	0.10896278	-10.923519	0.05448139	1.117548
1235772739514	-0.81722087	-12.258313	0.2860273	2.4822025
1235772739554	0.05448139	-13.988097	-0.3949901	4.187129
1235772739595	-2.5197644	-13.266219	2.0158114	3.8463812
1235772739635	-3.2280223	-13.647589	3.13268	4.5631275
1235772739675	-2.0158114	-13.484144	4.0861044	4.4264755
1235772739714	-2.9419951	-12.92571	4.9850473	4.355977
1235772739758	-2.465283	-12.353656	3.759216	3.3395329
1235772739798	-2.5197644	-9.684067	3.1463003	0.682848
1235772739838	-2.2882185	-6.905516	2.6287272	-2.071516
1235772739877	-1.3075534	-3.7864566	2.2882185	-5.193311
1235772739915	-0.87170225	-2.7921712	1.5118586	-6.513961
1235772739954	-1.4165162	-2.7240696	0.667397	-6.664598
1235772739995	-2.669588	-5.298315	-2.8602731	-3.2203002
1235772740034	-1.9068487	-11.195926	-6.4424243	3.2505188
1235772740075	-1.96133	-11.372991	-7.681876	4.0570774
1235772740115	-1.7434045	-12.312795	-9.084772	5.593917
1235772740155	-2.3971813	-15.6634	-3.759216	6.4789352
1235772740197	-5.243834	-10.256122	1.4028958	1.7973976
1235772740237	-3.3233647	-9.084772	4.2086873	0.74279976
1235772740275	0.0	-12.980191	6.1700177	4.5653534
1235772740315	1.9068487	-8.744264	2.8602731	-0.41093922
1235772740355	2.3971813	-8.635301	0.95342433	-0.794219
1235772740395	0.32688835	-10.923519	-0.50395286	1.1333723
1235772740435	-1.4165162	-7.9679036	-0.3405087	-1.7066536
1235772740477	-0.87170225	-7.2324047	1.2258313	-2.419485
1235772740515	0.05448139	-8.962189	0.89894295	-0.79932594
1235772740558	-0.16344418	-9.588725	1.56634	-0.08946037
1235772740594	-0.16344418	-9.466142	1.1168685	-0.273448
1235772740635	-0.5992953	-11.195926	0.2860273	1.4089518
1235772740675	-0.6537767	-12.312795	1.0623871	2.5691738
1235772740715	0.6537767	-13.593107	0.05448139	3.8022795
1235772740754	-2.2882185	-13.593107	0.3949901	3.983366
1235772740795	-3.336985	-13.375181	2.4108016	4.1877384
1235772740834	-2.3018389	-13.3207	2.4108016	3.9247541
1235772740874	-3.5549107	-13.3207	3.255263	4.359336
1235772740915	-2.2473574	-12.476238	4.031623	3.4960232
1235772740955	-1.7570249	-10.419566	2.8057916	1.1261883
1235772740995	-1.920469	-7.572913	2.8602731	-1.4868917
1235772741035	-1.253072	-4.140586	2.8057916	-4.650381
1235772741077	-1.4165162	-2.73769	1.7434045	-6.265333
1235772741117	-1.96133	-2.8057916	0.95342433	-6.2530184
1235772741157	-3.1054392	-5.529861	-2.6287272	-2.941279
1235772741197	-2.2882185	-11.318509	-6.2244987	3.3116188
1235772741235	-2.1247742	-11.386611	-7.6273947	4.0622616
1235772741275	-1.8523673	-12.612442	-9.139254	5.878722
1235772741315	-1.96133	-15.949428	-4.6445384	6.920656
1235772741355	-5.5162406	-9.983715	-0.7218784	1.6224613
1235772741395	-3.3233647	-8.757884	2.3563201	-0.14758587
1235772741435	-0.43585113	-12.6669235	4.140586	3.526968
1235772741475	0.87170225	-8.036005	2.6287272	-1.3067999
1235772741514	2.3426998	-8.7034025	1.9068487	-0.59396744
1235772741555	0.16344418	-11.264028	0.3405087	1.4637079
1235772741595	-1.1985906	-8.090487	0.55843425	-1.608818
1235772741634	-1.0351465	-7.8180795	1.1168685	-1.8416462
1235772741675	0.0	-9.261836	1.0079057	-0.4901333
1235772741714	-0.27240697	-9.656827	1.4028958	-0.04465103
1235772741755	-0.21792556	-9.820271	0.667397	0.038684845
1235772741795	-0.4903325	-11.495573	-0.16344418	1.7005367
1235772741835	-0.32688835	-12.92571	0.16344418	3.1242256
1235772741874	0.10896278	-14.206022	-0.89894295	4.4282026
1235772741915	-2.5742457	-13.484144	1.4028958	3.9925165
1235772741955	-2.8466527	-13.034673	2.969236	3.8616524
1235772741995	-2.233737	-13.089154	2.8057916	3.7649384
1235772742037	-2.8330324	-12.421757	4.426613	3.68116
1235772742077	-1.9749504	-11.250407	3.2007818	2.0557737
1235772742115	-1.920469	-9.193735	2.465283	-0.09631634
1235772742155	-1.8523673	-6.0201936	2.8057916	-2.9112563
1235772742195	-1.3075534	-3.7864566	2.070293	-5.2974305
1235772742235	-1.253072	-3.336985	1.293933	-6.0145636
1235772742274	-2.1792557	-3.7319753	0.10896278	-5.4836106
1235772742315	-3.1599207	-7.1915436	-5.325556	-0.3163948
1235772742355	-2.3971813	-10.923519	-7.8998017	3.88556
1235772742394	-2.1247742	-10.869038	-10.20164	5.2507105
1235772742434	-0.7627395	-10.869038	-10.365085	5.2317257
1235772742475	-3.486809	-13.429663	-7.4503303	5.9420347
1235772742515	-6.3334618	-8.798744	-4.5900574	1.9661694
1235772742555	-3.1599207	-8.921328	1.0079057	-0.28871632
1235772742595	-1.5799603	-12.92571	0.89894295	3.2462559
1235772742635	1.525479	-8.131348	3.4731886	-0.83397293
1235772742675	2.5606253	-9.248216	2.7513103	0.17613506
1235772742743	0.92618364	-11.75436	0.05448139	1.9842691
1235772742784	-0.4903325	-8.131348	1.4573772	-1.5311937
1235772742823	-0.6537767	-8.635301	0.7899802	-1.1106796
1235772742864	0.10896278	-9.970095	1.4573772	0.26998615
1235772742903	0.10896278	-9.861132	0.61291564	0.07411194
1235772742944	-0.5992953	-11.645397	-0.2860273	1.8576651
1235772742984	-0.4903325	-12.980191	-0.16344418	3.1838274
1235772743023	0.05448139	-13.879134	-1.8523673	4.195657
1235772743063	-2.4516625	-12.653303	0.84446156	3.1096125
1235772743104	-2.1792557	-12.653303	2.0158114	3.1902237
1235772743143	-1.6889231	-13.089154	2.8057916	3.6859732
1235772743184	-2.506144	-12.92571	5.039529	4.291278
1235772743224	-2.1247742	-11.863323	3.3642259	2.7061872
1235772743264	-2.2882185	-9.084772	3.2007818	0.09355354
1235772743305	-1.96133	-5.243834	2.969236	-3.4693818
1235772743345	-1.253072	-2.8466527	2.1792557	-6.008917
1235772743385	-0.92618364	-2.669588	1.4028958	-6.6518707
1235772743424	-1.7434045	-3.9499009	-0.7899802	-5.417431
1235772743465	-2.6151068	-9.970095	-6.101916	2.1714525
1235772743505	-1.7978859	-11.645397	-7.954283	4.410181
1235772743545	-2.3426998	-11.808842	-10.474048	6.150876
1235772743584	-0.38136974	-14.314985	-6.891896	6.0855646
1235772743624	-0.81722087	-8.798744	0.2860273	-0.9654083
1235772743665	-4.2495484	-4.508335	1.96133	-3.3081455
1235772743705	0.7082581	-9.139254	7.3413672	1.9374237
1235772743745	0.7627395	-7.4639506	3.4187074	-1.5616589
1235772743785	0.4903325	-6.9599977	1.3484144	-2.7002997
1235772743825	2.2882185	-10.528529	1.2394516	1.038723
1235772743865	-1.0351465	-7.8589406	-1.1168685	-1.8015347
1235772743905	-1.1985906	-6.7965536	1.6753027	-2.704791
1235772743945	-0.4903325	-8.689782	1.0623871	-1.0384455
1235772743985	-0.10896278	-9.697687	1.56634	0.017321587
1235772744024	0.5992953	-9.643207	0.84446156	-0.10800648
1235772744065	-0.32688835	-10.978001	0.05448139	1.1763515
1235772744105	-0.54481393	-12.421757	-0.89894295	2.659503
1235772744144	0.38136974	-13.70207	-1.7978859	4.0181313
1235772744185	-2.2473574	-14.042579	-2.465283	4.6267223
1235772744225	-2.9556155	-13.824653	0.0	4.3304176
1235772744265	-2.1247742	-13.497765	1.56634	3.9468126
1235772744305	-2.9419951	-13.892755	2.3018389	4.5795383
1235772744344	-1.9068487	-12.775887	4.0861044	3.741619
1235772744385	-1.7978859	-11.046102	2.0158114	1.5649042
1235772744425	-1.96133	-8.144968	2.5742457	-1.0422869
1235772744465	-1.4165162	-3.9635212	2.8057916	-4.7481437
1235772744504	-1.8523673	-2.4108016	2.3018389	-5.9932933
1235772744544	-1.8523673	-2.3563201	1.4573772	-6.473865
1235772744585	-3.1054392	-5.0259085	-2.3018389	-3.466148
1235772744625	-2.5606253	-10.882658	-6.101916	2.930006
1235772744665	-2.1792557	-11.931424	-7.4503303	4.427655
1235772744705	-2.1247742	-13.157256	-8.458236	5.978463
1235772744747	-1.5799603	-14.778077	-3.8136973	5.5371475
1235772744784	-5.3527966	-9.425281	-0.55843425	1.0469294
1235772744824	-4.195067	-7.872561	1.8523673	-0.69582844
1235772744865	-1.1985906	-10.54215	4.031623	1.5435705
1235772744905	-0.38136974	-8.19945	1.56634	-1.4502258
1235772744944	1.6344417	-8.812365	1.6753027	-0.6887665
1235772744985	0.38136974	-10.705593	0.55843425	0.9202795
1235772745025	-1.253072	-8.4854765	0.2860273	-1.2243834
1235772745064	-0.6537767	-7.763598	1.6208214	-1.8487644
1235772745105	-0.05448139	-8.934948	1.0623871	-0.8085985
1235772745147	-0.54481393	-9.765789	1.1168685	0.03788376
1235772745187	0.10896278	-9.765789	0.2860273	-0.036066055
1235772745225	-0.4903325	-11.495573	-0.3405087	1.7044134
1235772745264	-0.92618364	-12.326415	-0.21792556	2.5564327
1235772745305	0.980665	-13.429663	-0.3949901	3.6645622
1235772745344	-1.3620348	-13.70207	-1.0623871	4.003872
1235772745385	-2.1383946	-13.429663	1.5118586	3.8759775
1235772745427	-0.44947147	-14.042579	2.3563201	4.4393415
1235772745465	-1.9749504	-13.988097	2.819412	4.5987787
1235772745507	-1.5390993	-12.598822	4.9986677	3.8346767
1235772745545	-1.0487667	-10.528529	3.13268	1.2280006
1235772745584	-1.4301366	-7.409469	2.969236	-1.6972799
1235772745625	-0.939804	-4.235928	2.8602731	-4.609778
1235772745664	-1.4301366	-3.6230125	1.7978859	-5.516673
1235772745704	-2.0294318	-3.5140498	1.2394516	-5.563611
1235772745745	-3.1190596	-5.243834	-1.6208214	-3.4936962
1235772745785	-2.6832085	-11.141444	-5.7750273	3.0262108
1235772745825	-1.7570249	-11.032481	-6.7284517	3.2346249
1235772745865	-1.4301366	-12.14935	-9.41166	5.6280947
1235772745909	-0.7763598	-16.43976	-4.031623	7.1380367
1235772745945	-5.366417	-9.915613	-0.21792556	1.470109
1235772745984	-4.9169455	-6.905516	1.7978859	-1.1409187
1235772746025	-1.7570249	-11.086963	6.1700177	3.0026045
1235772746065	-0.8308412	-6.905516	2.1247742	-2.5340223
1235772746104	2.1111538	-7.4639506	2.070293	-1.778347
1235772746145	0.53119355	-11.086963	0.7218784	1.3164797
1235772746185	-1.5390993	-8.308413	-0.89894295	-1.3092012
1235772746224	-1.1577295	-7.518432	0.55843425	-2.179134
1235772746265	-0.013620348	-9.534244	0.2860273	-0.2681074
1235772746305	0.095342435	-10.256122	0.7899802	0.48029232
1235772746345	-0.8308412	-9.697687	0.2860273	-0.0692358
1235772746384	-0.3405087	-11.536434	-0.3405087	1.73983
1235772746424	-0.2860273	-13.3207	0.05448139	3.517232
1235772746464	0.6946377	-15.26841	-0.3405087	5.481345
1235772746504	-0.50395286	-14.818938	0.95342433	5.0514765
1235772746544	-2.7921712	-14.09706	3.3097446	4.9404764
1235772746585	-2.1383946	-13.484144	2.9147544	4.153675
1235772746625	-2.192876	-11.75436	4.4810944	2.9626055
1235772746665	-1.1032481	-10.869038	4.426613	1.9809713
1235772746705	-0.61291564	-9.357179	3.0237172	0.046031
1235772746745	-1.2122109	-6.347082	3.7047346	-2.3581629
1235772746785	-1.8115063	-4.508335	2.5197644	-4.333456
1235772746825	-2.0294318	-3.6230125	1.6208214	-5.348862
1235772746865	-2.6832085	-3.8954194	0.16344418	-5.0737214
1235772746904	-3.6093922	-8.417375	-4.930566	0.5948105
1235772746945	-2.73769	-10.978001	-7.177923	3.5923805
1235772746985	-2.8466527	-10.760075	-9.01667	4.51756
1235772747024	-3.2280223	-13.70207	-7.559293	6.1717663
1235772747064	-3.2280223	-9.588725	-1.56634	0.4313774
1235772747105	-4.2086873	-5.066769	1.293933	-3.0940156
1235772747145	-0.939804	-10.58301	4.140586	1.5963221
1235772747185	0.6946377	-8.417375	2.3018389	-1.0526123
1235772747224	0.6946377	-8.240311	1.2394516	-1.4447441
1235772747265	0.7491191	-11.372991	0.0	1.5909843
1235772747304	-1.484618	-8.185829	-1.1713499	-1.4052248
1235772747344	-1.2122109	-7.572913	0.2860273	-2.1319985
1235772747385	-0.3405087	-9.084772	-0.10896278	-0.7148466
1235772747425	-0.61291564	-9.357179	0.667397	-0.40569973
1235772747464	-0.88532263	-9.643207	0.61291564	-0.10351181
1235772747504	-0.7763598	-11.645397	-0.3949901	1.8712797
1235772747545	-1.0896279	-12.598822	-0.84446156	2.8673668
1235772747585	0.27240697	-14.49205	-2.0158114	4.8274612
1235772747625	-0.61291564	-13.429663	0.05448139	3.6371021
1235772747665	-1.6480621	-13.034673	1.96133	3.4773865
1235772747705	-0.7082581	-14.546532	2.6287272	4.9924517
1235772747744	-1.3075534	-13.879134	4.8760843	4.9621096
1235772747785	-1.525479	-13.143636	3.7047346	3.9340668
1235772747825	-1.4709976	-10.419566	3.2007818	1.1922674
1235772747865	-1.6889231	-5.679685	3.759216	-2.7893152
1235772747904	-2.0158114	-2.7240696	2.6832085	-5.4841905
1235772747945	-1.7978859	-2.0566726	2.1792557	-6.3121614
1235772747985	-2.506144	-3.1190596	0.3949901	-5.78604
1235772748025	-2.3971813	-9.466142	-5.2165933	1.2643557
1235772748065	-1.4165162	-12.203832	-7.504812	4.5899544
1235772748105	-1.3075534	-11.536434	-9.139254	4.9691734
1235772748144	1.0896279	-12.762266	-8.294792	5.453307
1235772748185	-1.6344417	-11.590916	-5.039529	2.937665
1235772748225	-5.7886477	-7.4639506	-3.13268	0.14486694
1235772748264	-2.0158114	-9.643207	1.8523673	0.21763039
1235772748305	-1.3620348	-11.985906	0.89894295	2.2898445
1235772748344	0.6537767	-8.022385	3.3642259	-1.0828838
1235772748384	2.669588	-10.147159	3.3097446	1.1954374
1235772748424	-0.54481393	-10.528529	-0.16344418	0.7372322
1235772748465	-1.3620348	-7.749978	1.8523673	-1.7228041
1235772748504	-1.253072	-8.240311	1.1713499	-1.3897047
1235772748544	-0.32688835	-9.357179	1.1713499	-0.37077618
1235772748585	-0.16344418	-9.752169	1.1713499	0.016972542
1235772748625	-0.43585113	-10.814556	0.0	1.0166855
1235772748664	-0.43585113	-12.258313	-0.61291564	2.4747133
1235772748705	1.0351465	-13.879134	-0.7899802	4.1334352
1235772748744	-0.16344418	-13.538626	1.1713499	3.783536
1235772748785	-1.525479	-13.429663	2.5197644	3.9422455
1235772748825	-1.0487667	-13.70207	3.7047346	4.426119
1235772748865	-2.465283	-13.143636	4.372132	4.26276
1235772748905	-2.1247742	-12.217452	3.255263	3.01433
1235772748945	-2.070293	-9.765789	2.7513103	0.54837036
1235772748985	-1.96133	-6.742072	2.6287272	-2.309147
1235772749024	-1.3620348	-3.6230125	2.6287272	-5.127808
1235772749064	-1.253072	-2.506144	1.8523673	-6.4477496
1235772749104	-2.070293	-2.669588	0.84446156	-6.32442
1235772749144	-3.4323275	-5.911231	-4.372132	-1.692523
1235772749185	-2.7240696	-10.923519	-7.559293	3.7538338
1235772749224	-2.8330324	-9.588725	-9.248216	3.813159
1235772749264	-0.6537767	-11.250407	-8.567199	4.3494787
1235772749305	-1.525479	-12.258313	-4.6445384	3.3905106
1235772749344	-5.952092	-5.679685	-2.1792557	-1.2957525
1235772749385	-1.7434045	-9.752169	3.13268	0.58363056
1235772749425	-1.1441092	-11.086963	1.0623871	1.3897057
1235772749465	0.21792556	-7.082581	2.8057916	-2.1854353
1235772749504	2.6151068	-9.80665	2.7513103	0.7089987
1235772749544	-0.38136974	-9.534244	-0.95342433	-0.21726704
1235772749585	-0.92618364	-7.3549876	1.6208214	-2.2184544
1235772749638	-1.0351465	-8.798744	0.10896278	-0.9465542
1235772749674	0.10896278	-10.079058	1.1168685	0.33468437
1235772749714	1.0896279	-10.528529	0.44947147	0.787652
1235772749755	-0.27240697	-11.699879	-0.44947147	1.9050274
1235772749795	0.7082581	-13.756551	0.7218784	3.9870234
1235772749835	-0.10896278	-15.159447	0.10896278	5.3535795
1235772749874	-2.5606253	-14.314985	2.3563201	4.9252157
1235772749915	-2.0158114	-14.764457	3.7047346	5.5484056
1235772749955	-2.6832085	-14.87342	3.3097446	5.665021
1235772749995	-2.5197644	-13.211738	4.5900574	4.40489
1235772750035	-2.3426998	-11.372991	3.636633	2.361268
1235772750074	-2.5606253	-8.635301	3.0237172	-0.3056984
1235772750115	-1.7978859	-4.903325	3.0781987	-3.7444477
1235772750155	-1.1441092	-3.1190596	1.9068487	-5.976038
1235772750195	-0.81722087	-3.0100968	1.4028958	-6.386614
1235772750234	-2.0158114	-4.0180025	-0.61291564	-5.2697453
1235772750279	-2.669588	-9.80665	-5.3800373	1.692997
1235772750315	-2.3426998	-10.419566	-6.9463773	2.9333563
1235772750354	-2.3426998	-11.195926	-9.193735	4.868559
1235772750397	-1.7978859	-15.881326	-4.263169	6.7349186
1235772750434	-4.30403	-10.256122	1.4028958	1.4040956
1235772750474	-3.1054392	-7.3549876	4.0861044	-0.838047
1235772750515	-0.6537767	-11.863323	6.7284517	3.847577
1235772750555	0.16344418	-7.6954966	2.6832085	-1.6551476
1235772750595	1.4165162	-7.409469	1.5118586	-2.112986
1235772750634	-0.38136974	-11.195926	0.16344418	1.3969612
1235772750675	-1.0351465	-8.076866	-0.16344418	-1.6620817
1235772750714	-0.87170225	-7.409469	0.89894295	-2.2921176
1235772750754	0.21792556	-9.084772	0.84446156	-0.68011284
1235772750795	-0.05448139	-9.861132	1.293933	0.13916016
1235772750835	-0.16344418	-10.147159	0.667397	0.3637457
1235772750875	-0.6537767	-11.808842	0.0	2.020276
1235772750915	-0.3405087	-13.593107	-0.16344418	3.7917042
1235772750955	-0.17706452	-14.369467	-1.0623871	4.6031246
1235772750995	-2.3426998	-14.09706	0.7899802	4.505562
1235772751034	-1.9068487	-14.260504	2.1792557	4.7448864
1235772751075	-2.083913	-15.104965	2.6832085	5.6756706
1235772751114	-2.192876	-13.756551	4.5900574	4.86032
1235772751155	-1.6344417	-11.713499	3.8136973	2.6200037
1235772751195	-1.7978859	-8.989429	2.969236	-0.17033386
1235772751234	-1.0896279	-4.862464	2.8602731	-4.0610423
1235772751275	-0.7082581	-3.4187074	1.6208214	-5.9574614
1235772751315	-0.980665	-3.13268	0.95342433	-6.388404
1235772751355	-2.2882185	-3.8545585	-0.50395286	-5.295826
1235772751395	-3.2688835	-9.261836	-4.930566	1.1832399
1235772751435	-2.506144	-11.209546	-6.605869	3.443715
1235772751475	-2.233737	-13.33432	-8.403754	6.112418
1235772751519	-1.7978859	-18.183165	-6.496906	9.585865
1235772751554	-7.2596455	-11.659018	-2.6832085	4.1874466
1235772751595	-4.6853995	-8.989429	0.84446156	0.36566162
1235772751635	-1.6344417	-12.6669235	2.070293	3.1319923
1235772751675	-0.92618364	-8.036005	1.5118586	-1.5773783
1235772751715	3.214402	-9.261836	1.96133	0.19139004
1235772751754	-0.43585113	-11.155065	-0.2860273	1.360589
1235772751795	-2.0158114	-8.036005	0.3949901	-1.5122614
1235772751834	-1.3075534	-7.9270425	0.55843425	-1.7531071
1235772751874	0.0	-9.370799	0.3949901	-0.4275303
1235772751915	-0.4903325	-9.820271	1.0079057	0.07737827
1235772751954	-0.54481393	-9.425281	0.61291564	-0.34576225
1235772751994	-0.54481393	-11.604536	-0.3405087	1.8156576
1235772752035	-0.32688835	-13.770171	-0.16344418	3.9683704
1235772752075	0.4903325	-14.723596	-1.0079057	4.959547
1235772752115	-2.1247742	-13.988097	1.56634	4.42834
1235772752155	-2.3971813	-13.538626	3.759216	4.4472113
1235772752195	-2.3426998	-14.151542	3.2007818	4.8902674
1235772752234	-2.3426998	-13.143636	5.4890003	4.6284637
1235772752275	-1.0896279	-11.75436	3.8681788	2.6157122
1235772752315	-1.5799603	-9.084772	2.9147544	-0.1358099
1235772752355	-1.3620348	-4.508335	3.9771416	-3.6424084
1235772752394	-1.7434045	-2.8466527	2.2473574	-5.7825346
1235772752435	-1.525479	-3.0100968	1.6208214	-6.0630116
1235772752474	-2.506144	-4.1814466	-0.3405087	-4.919811
1235772752514	-2.3971813	-9.970095	-5.4890003	1.8242731
